Time	ax	ay	az	gx	gy	gz
0.014	-0.01916015625	-0.10777587890625001	9.78844482421875	-0.1678466796875	-0.19073486328125	-0.0457763671875
0.023	-0.01676513671875	-0.14130615234375002	9.75970458984375	-0.02288818359375	-0.00762939453125	0.1373291015625
0.031	-0.055085449218750006	-0.11017089843750001	9.81239501953125	0.02288818359375	0.0	-0.0762939453125
0.039	0.023950195312500002	-0.05987548828125	9.838740234375	-0.0457763671875	-0.06103515625	0.213623046875
0.048	-0.03113525390625	-0.09340576171875001	9.76449462890625	0.11444091796875	-0.0152587890625	-0.03814697265625
0.057	-0.06466552734375	-0.10538085937500001	9.838740234375	-0.1373291015625	0.20599365234375	-0.02288818359375
0.066	-0.028740234375	-0.08861572265625	9.77886474609375	0.030517578125	-0.11444091796875	-0.17547607421875
0.074	-0.023950195312500002	-0.14130615234375002	9.84592529296875	-0.0152587890625	-0.14495849609375	-0.14495849609375
0.083	-0.023950195312500002	-0.076640625	9.776469726562501	-0.09918212890625	-0.0762939453125	-0.0152587890625
0.093	0.00239501953125	-0.052690429687500005	9.7189892578125	0.14495849609375	0.0457763671875	0.0762939453125
0.101	-0.023950195312500002	-0.1149609375	9.7956298828125	-0.1983642578125	-0.19073486328125	-0.05340576171875
0.11	-0.023950195312500002	-0.1389111328125	9.733359375000001	-0.06103515625	-0.08392333984375	-0.0762939453125
0.118	-0.0335302734375	-0.0814306640625	9.776469726562501	-0.00762939453125	-0.06103515625	-0.030517578125
0.128	-0.045505371093750004	-0.14609619140625002	9.754914550781251	0.0	-0.12969970703125	-0.0152587890625
0.137	-0.00239501953125	-0.0814306640625	9.829160156250001	-0.16021728515625	-0.06103515625	0.08392333984375
0.145	-0.02155517578125	-0.0383203125	9.857900390625	0.02288818359375	0.030517578125	0.06103515625
0.153	-0.01916015625	-0.15088623046875002	9.77886474609375	-0.03814697265625	0.37384033203125	-0.1068115234375
0.162	0.01916015625	-0.0622705078125	9.85071533203125	-0.14495849609375	-0.03814697265625	-0.05340576171875
0.172	0.01676513671875	-0.09101074218750001	9.8052099609375	-0.274658203125	0.14495849609375	-0.05340576171875
0.18	-0.067060546875	-0.10538085937500001	9.829160156250001	-0.02288818359375	-0.0457763671875	0.11444091796875
0.189	-0.01916015625	-0.10777587890625001	9.79083984375	0.0	0.0152587890625	-0.06866455078125
0.198	0.05748046875	-0.1197509765625	9.733359375000001	-0.14495849609375	-0.091552734375	-0.11444091796875
0.207	-0.0047900390625	-0.10777587890625001	9.836345214843751	-0.20599365234375	-0.08392333984375	-0.18310546875
0.217	-0.055085449218750006	-0.1197509765625	9.71180419921875	-0.1220703125	-0.16021728515625	-0.0457763671875
0.226	-0.026345214843750003	-0.1197509765625	9.896220703125001	-0.14495849609375	-0.1068115234375	-0.09918212890625
0.235	-0.10298583984375001	-0.10777587890625001	9.8435302734375	-0.00762939453125	0.030517578125	-0.18310546875
0.244	-0.07903564453125	-0.1149609375	9.829160156250001	0.06866455078125	-0.0152587890625	0.05340576171875
0.252	0.0383203125	-0.12214599609375	9.72617431640625	0.02288818359375	-0.1983642578125	-0.0762939453125
0.262	-0.023950195312500002	-0.1676513671875	9.8626904296875	-0.14495849609375	-0.1068115234375	0.14495849609375
0.271	-0.03592529296875	-0.03592529296875	9.86508544921875	0.030517578125	0.09918212890625	-0.06866455078125
0.279	-0.01676513671875	-0.10059082031250001	9.77407470703125	-0.06103515625	-0.0152587890625	-0.19073486328125
0.288	-0.009580078125	-0.08382568359375	9.733359375000001	-0.0762939453125	-0.00762939453125	0.1068115234375
0.297	-0.01676513671875	-0.11017089843750001	9.754914550781251	0.06866455078125	0.08392333984375	0.0762939453125
0.306	-0.04071533203125	-0.07424560546875	9.8339501953125	-0.05340576171875	0.030517578125	-0.0457763671875
0.315	0.05748046875	-0.0814306640625	9.76449462890625	-0.11444091796875	0.00762939453125	0.06103515625
0.323	-0.05987548828125	-0.067060546875	9.889035644531251	0.00762939453125	-0.05340576171875	-0.030517578125
0.332	-0.067060546875	-0.13172607421875002	9.793234863281251	-0.20599365234375	-0.16021728515625	-0.06103515625
0.342	-0.055085449218750006	-0.09819580078125001	9.77886474609375	-0.08392333984375	-0.12969970703125	0.030517578125
0.351	0.0047900390625	-0.09101074218750001	9.82676513671875	-0.091552734375	0.20599365234375	-0.03814697265625
0.359	-0.076640625	-0.0718505859375	9.74533447265625	-0.0152587890625	0.03814697265625	-0.06866455078125
0.368	-0.00239501953125	-0.076640625	9.814790039062501	0.0	-0.0457763671875	-0.091552734375
0.376	-0.023950195312500002	-0.11256591796875001	9.77407470703125	-0.0762939453125	0.00762939453125	-0.09918212890625
0.386	-0.0335302734375	-0.086220703125	9.762099609375001	-0.03814697265625	0.0457763671875	-0.0457763671875
0.394	0.0	-0.08861572265625	9.69264404296875	-0.02288818359375	0.0152587890625	-0.12969970703125
0.402	0.01916015625	-0.052690429687500005	9.69743408203125	0.0762939453125	-0.03814697265625	-0.0457763671875
0.411	0.045505371093750004	-0.0383203125	9.793234863281251	0.0	-0.1220703125	-0.03814697265625
0.419	0.011975097656250001	-0.0814306640625	9.81239501953125	0.08392333984375	-0.02288818359375	0.091552734375
0.429	-0.0622705078125	-0.08382568359375	9.79083984375	-0.12969970703125	-0.091552734375	-0.19073486328125
0.438	-0.04071533203125	-0.10059082031250001	9.7956298828125	-0.091552734375	0.1373291015625	0.0
0.446	-0.026345214843750003	-0.08382568359375	9.85071533203125	0.06866455078125	0.05340576171875	-0.030517578125
0.454	0.0047900390625	-0.055085449218750006	9.857900390625	-0.06866455078125	-0.08392333984375	-0.1220703125
0.463	-0.01676513671875	-0.09101074218750001	9.73096435546875	-0.02288818359375	0.03814697265625	-0.06103515625
0.472	-0.0814306640625	-0.03592529296875	9.769284667968751	0.00762939453125	-0.06103515625	-0.19073486328125
0.481	-0.03592529296875	-0.07424560546875	9.857900390625	0.030517578125	0.1373291015625	-0.05340576171875
0.49	-0.055085449218750006	-0.09819580078125001	9.81718505859375	-0.1373291015625	-0.11444091796875	-0.0762939453125
0.499	0.011975097656250001	-0.06466552734375	9.7716796875	0.08392333984375	0.00762939453125	0.02288818359375
0.507	-0.0047900390625	-0.11735595703125	9.81718505859375	0.0	-0.06866455078125	-0.23651123046875
0.516	-0.011975097656250001	-0.05987548828125	9.66869384765625	-0.0152587890625	0.16021728515625	0.1678466796875
0.525	-0.03592529296875	-0.14609619140625002	9.72617431640625	-0.08392333984375	0.06866455078125	-0.0152587890625
0.533	-0.02155517578125	-0.0814306640625	9.82676513671875	0.091552734375	0.0	-0.17547607421875
0.542	-0.01916015625	-0.14609619140625002	9.84592529296875	0.11444091796875	0.00762939453125	0.0
0.55	-0.08861572265625	-0.052690429687500005	9.7573095703125	-0.11444091796875	0.0152587890625	-0.03814697265625
0.56	-0.009580078125	-0.09340576171875001	9.821975097656251	-0.03814697265625	0.1373291015625	-0.12969970703125
0.568	0.0	-0.14609619140625002	9.838740234375	0.0152587890625	-0.1220703125	0.00762939453125
0.576	-0.00239501953125	-0.05987548828125	9.7956298828125	-0.0457763671875	0.11444091796875	-0.2288818359375
0.585	-0.009580078125	-0.086220703125	9.83155517578125	-0.08392333984375	-0.03814697265625	0.030517578125
0.594	-0.06466552734375	-0.10777587890625001	9.8339501953125	0.06866455078125	-0.05340576171875	0.0
0.603	-0.0335302734375	-0.1389111328125	9.7668896484375	-0.152587890625	-0.00762939453125	-0.05340576171875
0.612	0.026345214843750003	-0.09580078125000001	9.79802490234375	0.0762939453125	0.17547607421875	-0.00762939453125
0.62	0.00239501953125	-0.10538085937500001	9.776469726562501	-0.05340576171875	-0.1068115234375	-0.1068115234375
0.629	-0.0383203125	-0.143701171875	9.769284667968751	0.0152587890625	-0.0457763671875	0.00762939453125
0.637	-0.055085449218750006	-0.10059082031250001	9.81	-0.0152587890625	-0.0152587890625	-0.05340576171875
0.647	-0.01916015625	-0.1149609375	9.79802490234375	0.06103515625	0.05340576171875	0.06866455078125
0.655	-0.03113525390625	-0.10298583984375001	9.85071533203125	0.06866455078125	0.00762939453125	-0.0762939453125
0.663	-0.00718505859375	-0.076640625	9.83155517578125	-0.1068115234375	0.06866455078125	-0.22125244140625
0.672	-0.026345214843750003	-0.09580078125000001	9.7716796875	-0.091552734375	-0.0457763671875	0.091552734375
0.681	-0.067060546875	-0.086220703125	9.8339501953125	-0.0152587890625	-0.0457763671875	-0.0152587890625
0.691	0.01676513671875	-0.10538085937500001	9.853110351562501	0.06866455078125	-0.09918212890625	-0.12969970703125
0.699	0.0047900390625	-0.124541015625	9.800419921875001	-0.08392333984375	-0.38909912109375	0.12969970703125
0.708	-0.0335302734375	-0.09819580078125001	9.81718505859375	-0.06866455078125	-0.091552734375	-0.06103515625
0.717	-0.050295410156250005	-0.09340576171875001	9.77886474609375	-0.11444091796875	-0.0762939453125	-0.152587890625
0.727	-0.08382568359375	-0.143701171875	9.88424560546875	-0.02288818359375	0.030517578125	-0.06866455078125
0.736	0.06466552734375	-0.15088623046875002	9.821975097656251	-0.0762939453125	0.1068115234375	-0.1220703125
0.745	-0.00239501953125	-0.0814306640625	9.821975097656251	-0.11444091796875	0.17547607421875	0.091552734375
0.754	-0.05748046875	-0.13412109375	9.769284667968751	-0.06866455078125	-0.16021728515625	0.091552734375
0.762	0.03592529296875	-0.11017089843750001	9.8483203125	0.02288818359375	-0.05340576171875	-0.08392333984375
0.772	-0.047900390625000004	-0.1149609375	9.81718505859375	0.0457763671875	0.213623046875	-0.0762939453125
0.781	-0.076640625	-0.1293310546875	9.84113525390625	-0.03814697265625	0.030517578125	-0.1068115234375
0.789	-0.00239501953125	-0.12214599609375	9.8052099609375	-0.0152587890625	0.1068115234375	0.06103515625
0.798	0.028740234375	-0.0814306640625	9.814790039062501	-0.19073486328125	-0.6256103515625	-0.25177001953125
0.808	-3.4536181640625	-0.15088623046875002	9.33339111328125	-1.40380859375	0.2288818359375	-22.735595703125
0.82	-0.45026367187500005	-0.36164794921875004	9.980046386718751	1.434326171875	-4.47845458984375	-38.21563720703125
0.829	1.07296875	0.050295410156250005	9.81	0.9307861328125	-0.7171630859375	-29.022216796875
0.839	1.44419677734375	0.17962646484375	9.71419921875	0.05340576171875	-0.457763671875	-18.25714111328125
0.848	1.55197265625	0.258662109375	9.896220703125001	-0.23651123046875	0.89263916015625	-5.8441162109375
0.859	-0.3209326171875	-0.09340576171875001	9.647138671875	-0.0457763671875	0.93841552734375	-0.335693359375
0.868	0.24908203125	-0.12693603515625002	9.9297509765625	-0.1678466796875	3.7078857421875	-0.29754638671875
0.877	0.06945556640625	-0.11256591796875001	9.889035644531251	-0.05340576171875	2.69317626953125	-0.244140625
0.887	1.140029296875	-0.23231689453125	9.867480468750001	1.8463134765625	19.53125	-1.7242431640625
0.899	0.9196875	-0.22273681640625	9.69264404296875	12.77923583984375	60.4400634765625	-7.65228271484375
0.91	-0.39517822265625	0.6251000976562501	10.490185546875	16.7694091796875	69.2596435546875	-30.78460693359375
0.92	-0.97477294921875	0.4071533203125	8.078400878906251	-0.0762939453125	-40.12298583984375	-66.253662109375
0.931	-2.5866210937500003	0.03592529296875	8.66757568359375	-3.72314453125	-28.717041015625	-73.87542724609375
0.944	-2.3638842773437503	-0.76880126953125	9.4603271484375	-12.2222900390625	-77.67486572265625	-63.04931640625
0.954	-3.1374755859375	-0.08382568359375	9.3070458984375	-0.38909912109375	18.341064453125	1.861572265625
0.964	0.661025390625	-0.33290771484375004	10.399174804687501	0.8544921875	-4.24957275390625	11.60430908203125
0.974	-0.70174072265625	-0.3305126953125	9.838740234375	0.06866455078125	-3.1280517578125	18.1427001953125
0.985	0.871787109375	-0.026345214843750003	9.857900390625	-0.2899169921875	-2.17437744140625	17.08221435546875
0.995	-0.3400927734375	-0.29219238281250004	9.8052099609375	-0.34332275390625	-1.9378662109375	14.86968994140625
1.005	0.06466552734375	-0.13172607421875002	9.874665527343751	-0.23651123046875	-0.60272216796875	10.4522705078125
1.014	0.15088623046875002	-0.0047900390625	9.8243701171875	-0.274658203125	0.54168701171875	5.584716796875
1.024	0.17483642578125	0.18441650390625	9.742939453125	-0.1983642578125	0.7476806640625	0.3509521484375
1.033	-0.09101074218750001	-0.14609619140625002	9.75251953125	0.08392333984375	0.49591064453125	-0.11444091796875
1.042	0.0	-0.11017089843750001	9.740544433593751	0.1678466796875	-0.640869140625	0.091552734375
1.051	-0.143701171875	-0.08382568359375	9.6998291015625	-0.06866455078125	0.25177001953125	-0.02288818359375
1.06	-0.01676513671875	-0.076640625	9.70701416015625	-0.11444091796875	-0.0152587890625	0.06866455078125
1.07	0.011975097656250001	-0.08382568359375	9.83155517578125	-0.1373291015625	0.152587890625	-0.11444091796875
1.079	-0.00718505859375	-0.1293310546875	9.73575439453125	0.05340576171875	0.030517578125	-0.030517578125
1.087	-0.050295410156250005	-0.10538085937500001	9.8052099609375	0.030517578125	-0.00762939453125	-0.1373291015625
1.096	-0.07903564453125	-0.09101074218750001	9.793234863281251	0.06866455078125	-0.030517578125	-0.09918212890625
1.105	-0.055085449218750006	-0.086220703125	9.754914550781251	-0.08392333984375	-0.030517578125	0.030517578125
1.115	0.01676513671875	-0.086220703125	9.86508544921875	0.1068115234375	-0.0457763671875	-0.1220703125
1.124	0.0	-0.10059082031250001	9.685458984375	-0.08392333984375	-0.06866455078125	-0.18310546875
1.133	-0.011975097656250001	-0.08861572265625	9.84592529296875	0.1068115234375	-0.213623046875	-0.29754638671875
1.143	-0.03592529296875	-0.05987548828125	9.7860498046875	-0.06103515625	-0.17547607421875	-0.11444091796875
1.153	-0.02155517578125	-0.11017089843750001	9.7716796875	-0.030517578125	-0.14495849609375	0.091552734375
1.162	0.009580078125	-0.076640625	9.66390380859375	0.0152587890625	-0.12969970703125	0.030517578125
1.17	-0.00718505859375	-0.07903564453125	9.7860498046875	0.0	0.00762939453125	0.11444091796875
1.179	-0.052690429687500005	-0.09819580078125001	9.6998291015625	0.05340576171875	-0.030517578125	-0.00762939453125
1.188	-0.086220703125	-0.11735595703125	9.74533447265625	-0.00762939453125	0.12969970703125	-0.08392333984375
1.198	0.01676513671875	-0.10298583984375001	9.793234863281251	0.06103515625	-0.02288818359375	-0.1678466796875
1.207	-0.10538085937500001	-0.067060546875	9.72138427734375	0.20599365234375	-0.03814697265625	-0.152587890625
1.216	-0.01676513671875	-0.0335302734375	9.8243701171875	0.1220703125	0.02288818359375	0.06866455078125
1.224	-0.045505371093750004	-0.14130615234375002	9.8052099609375	-0.05340576171875	-0.06866455078125	-0.03814697265625
1.233	-0.0718505859375	-0.05987548828125	9.7668896484375	-0.030517578125	0.0762939453125	0.0152587890625
1.243	-0.00718505859375	-0.09819580078125001	9.80281494140625	-0.11444091796875	0.0152587890625	-0.030517578125
1.252	-0.047900390625000004	-0.1293310546875	9.81718505859375	-0.0152587890625	-0.1220703125	-0.23651123046875
1.261	-0.05987548828125	-0.14609619140625002	9.781259765625	0.25177001953125	-0.22125244140625	-0.05340576171875
1.27	-0.055085449218750006	-0.10777587890625001	9.86508544921875	0.03814697265625	0.0457763671875	-0.11444091796875
1.281	-0.00718505859375	-0.1293310546875	9.89861572265625	-0.11444091796875	-0.1373291015625	-0.11444091796875
1.29	0.009580078125	-0.10059082031250001	9.838740234375	-0.1068115234375	0.06866455078125	0.0
1.298	-0.01916015625	-0.0814306640625	9.78844482421875	-0.11444091796875	-0.00762939453125	-0.12969970703125
1.307	0.0335302734375	-0.052690429687500005	9.8483203125	-0.06103515625	-0.14495849609375	-0.11444091796875
1.316	-0.00718505859375	-0.086220703125	9.75012451171875	0.030517578125	-0.09918212890625	-0.11444091796875
1.326	-0.045505371093750004	-0.10298583984375001	9.860295410156251	-0.152587890625	-0.06866455078125	0.0
1.336	-0.04071533203125	-0.05987548828125	9.838740234375	-0.16021728515625	-0.1373291015625	-0.1220703125
1.345	-0.0383203125	-0.11017089843750001	9.829160156250001	-0.16021728515625	-0.08392333984375	-0.02288818359375
1.354	-0.026345214843750003	-0.07424560546875	9.69743408203125	-0.091552734375	-0.1220703125	0.02288818359375
1.364	0.028740234375	-0.12214599609375	9.814790039062501	0.091552734375	-0.091552734375	-0.0762939453125
1.374	0.0	-0.10059082031250001	9.860295410156251	-0.0762939453125	-0.1678466796875	0.08392333984375
1.383	0.0143701171875	-0.06466552734375	9.8052099609375	-0.18310546875	0.0762939453125	-0.1373291015625
1.392	-0.009580078125	-0.17004638671875	9.7860498046875	0.03814697265625	-0.091552734375	-0.1678466796875
1.401	-0.052690429687500005	-0.10059082031250001	9.8052099609375	-0.14495849609375	0.06866455078125	-0.1983642578125
1.411	-0.05987548828125	-0.0718505859375	9.75970458984375	-0.0762939453125	0.05340576171875	0.0762939453125
1.42	-0.02155517578125	-0.05748046875	9.838740234375	-0.08392333984375	0.14495849609375	0.0457763671875
1.429	-0.011975097656250001	-0.06466552734375	9.77407470703125	-0.02288818359375	-0.14495849609375	0.03814697265625
1.438	-0.011975097656250001	-0.12693603515625002	9.8435302734375	-0.0457763671875	0.06103515625	-0.1068115234375
1.446	-0.023950195312500002	-0.086220703125	9.84592529296875	0.0762939453125	-0.06103515625	-0.05340576171875
1.456	-0.047900390625000004	-0.050295410156250005	9.9393310546875	-0.030517578125	0.06103515625	-0.19073486328125
1.465	-0.050295410156250005	-0.06466552734375	9.793234863281251	0.00762939453125	-0.08392333984375	0.0762939453125
1.474	0.00239501953125	-0.11017089843750001	9.7668896484375	-0.09918212890625	0.1220703125	0.0152587890625
1.482	-0.028740234375	-0.10059082031250001	9.807604980468751	0.0	0.152587890625	-0.03814697265625
1.491	-0.01916015625	-0.076640625	9.821975097656251	-0.0457763671875	-0.0152587890625	-0.09918212890625
1.501	-0.00239501953125	-0.10298583984375001	9.860295410156251	-0.0152587890625	0.09918212890625	0.18310546875
1.51	-0.026345214843750003	-0.086220703125	9.81718505859375	-0.02288818359375	0.17547607421875	-0.17547607421875
1.519	-0.045505371093750004	-0.1197509765625	9.829160156250001	0.0762939453125	-0.152587890625	0.06103515625
1.528	0.0047900390625	-0.12214599609375	9.7860498046875	-0.1220703125	-0.12969970703125	0.0762939453125
1.538	0.028740234375	-0.15328125	9.79802490234375	-0.26702880859375	-0.19073486328125	0.02288818359375
1.546	0.055085449218750006	-0.047900390625000004	9.70701416015625	-0.03814697265625	0.09918212890625	-0.29754638671875
1.555	0.00718505859375	-0.0622705078125	9.754914550781251	-0.12969970703125	-0.0762939453125	0.05340576171875
1.564	-0.011975097656250001	-0.124541015625	9.860295410156251	-0.00762939453125	-0.05340576171875	-0.0152587890625
1.573	0.028740234375	-0.11735595703125	9.8052099609375	-0.09918212890625	-0.0457763671875	-0.09918212890625
1.583	-0.055085449218750006	-0.0814306640625	9.857900390625	0.06866455078125	0.091552734375	0.06103515625
1.591	0.02155517578125	-0.0718505859375	9.814790039062501	-0.0762939453125	-0.03814697265625	-0.02288818359375
1.6	-0.06945556640625	-0.0718505859375	9.82676513671875	-0.0457763671875	-0.1373291015625	0.06866455078125
1.609	-0.00718505859375	-0.162861328125	9.72617431640625	-0.1220703125	0.06103515625	-0.1220703125
1.619	-0.052690429687500005	-0.124541015625	9.81718505859375	0.05340576171875	-0.20599365234375	-0.06103515625
1.628	0.01916015625	-0.1197509765625	9.8339501953125	-0.0457763671875	0.0457763671875	-0.06866455078125
1.637	-0.04071533203125	-0.09580078125000001	9.8339501953125	0.02288818359375	-0.030517578125	-0.11444091796875
1.646	-0.00718505859375	-0.06466552734375	9.754914550781251	0.03814697265625	-0.14495849609375	-0.17547607421875
1.655	-0.01676513671875	-0.07903564453125	9.769284667968751	-0.20599365234375	0.06866455078125	0.00762939453125
1.665	-0.026345214843750003	-0.055085449218750006	9.85071533203125	-0.06103515625	-0.08392333984375	-0.14495849609375
1.674	-0.067060546875	-0.047900390625000004	9.84113525390625	-0.091552734375	-0.091552734375	-0.152587890625
1.683	-0.023950195312500002	-0.11017089843750001	9.821975097656251	0.0152587890625	0.12969970703125	-0.244140625
1.692	-0.028740234375	-0.026345214843750003	9.7956298828125	0.0152587890625	0.091552734375	-0.23651123046875
1.701	-0.023950195312500002	-0.09819580078125001	9.814790039062501	-0.091552734375	-0.26702880859375	-0.26702880859375
1.712	-0.0431103515625	-0.10538085937500001	9.807604980468751	-0.19073486328125	-0.06866455078125	-0.2899169921875
1.721	-0.023950195312500002	-0.09819580078125001	9.79083984375	-0.19073486328125	0.0762939453125	-0.02288818359375
1.73	0.026345214843750003	-0.14130615234375002	9.81718505859375	-0.03814697265625	-0.08392333984375	0.0762939453125
1.739	-0.050295410156250005	-0.09340576171875001	9.8435302734375	-0.0152587890625	-0.19073486328125	-0.03814697265625
1.748	-0.055085449218750006	-0.09101074218750001	9.769284667968751	-0.152587890625	-0.0457763671875	-0.09918212890625
1.759	-0.06466552734375	-0.11256591796875001	9.80281494140625	-0.2593994140625	-0.17547607421875	-0.05340576171875
1.768	-0.01916015625	-0.09819580078125001	9.7956298828125	-0.22125244140625	-0.0152587890625	-0.28228759765625
1.778	-0.047900390625000004	-0.086220703125	9.747729492187501	-0.0762939453125	-0.00762939453125	-0.16021728515625
1.787	-0.067060546875	-0.11256591796875001	9.85071533203125	-0.1373291015625	0.02288818359375	0.0457763671875
1.797	-0.0383203125	-0.14609619140625002	9.836345214843751	-0.12969970703125	-0.05340576171875	-0.09918212890625
1.806	-0.06945556640625	-0.06945556640625	9.72617431640625	-0.06103515625	0.1678466796875	-0.26702880859375
1.816	0.03113525390625	-0.08861572265625	9.81	0.19073486328125	-0.06866455078125	0.16021728515625
1.824	-0.05748046875	-0.11735595703125	9.84113525390625	-0.1373291015625	0.09918212890625	-0.08392333984375
1.835	-0.055085449218750006	-0.08382568359375	9.77886474609375	-0.11444091796875	-0.1983642578125	-0.0457763671875
1.844	-0.08861572265625	-0.143701171875	9.8626904296875	0.00762939453125	0.00762939453125	-0.1220703125
1.853	-0.03113525390625	-0.10777587890625001	9.83155517578125	-0.08392333984375	-0.16021728515625	-0.31280517578125
1.862	0.0	-0.07903564453125	9.78844482421875	0.06866455078125	-0.1678466796875	0.0152587890625
1.871	-0.0383203125	-0.086220703125	9.85550537109375	0.06866455078125	-0.06866455078125	-0.16021728515625
1.88	0.0047900390625	-0.0622705078125	9.838740234375	-0.1220703125	-0.02288818359375	-0.05340576171875
1.889	-0.02155517578125	-0.05748046875	9.754914550781251	0.03814697265625	-0.05340576171875	0.00762939453125
1.897	-0.04071533203125	-0.09819580078125001	9.9249609375	0.05340576171875	0.0457763671875	0.06103515625
1.905	-0.07424560546875	-0.10777587890625001	9.85550537109375	-0.00762939453125	0.22125244140625	0.06103515625
1.914	-0.0143701171875	-0.13172607421875002	9.8052099609375	0.02288818359375	-0.0457763671875	0.16021728515625
1.924	0.011975097656250001	-0.07903564453125	9.853110351562501	0.091552734375	0.030517578125	0.05340576171875
1.932	-0.00718505859375	-0.0814306640625	9.793234863281251	-0.06103515625	-0.030517578125	-0.0152587890625
1.941	-0.009580078125	-0.08861572265625	9.7573095703125	-0.08392333984375	-0.02288818359375	0.0
1.95	0.01676513671875	-0.1149609375	9.75970458984375	-0.12969970703125	-0.152587890625	-0.1678466796875
1.959	0.028740234375	-0.13172607421875002	9.886640625	-0.19073486328125	-0.25177001953125	0.06103515625
1.969	-0.047900390625000004	-0.06945556640625	9.860295410156251	-0.03814697265625	0.030517578125	0.11444091796875
1.978	-0.0814306640625	-0.09819580078125001	9.860295410156251	-0.1068115234375	-0.091552734375	-0.06103515625
1.987	-0.0431103515625	-0.06945556640625	9.79083984375	-0.09918212890625	0.0762939453125	-0.030517578125
1.997	-0.05987548828125	-0.09819580078125001	9.76449462890625	0.06103515625	-0.0762939453125	0.09918212890625
2.007	-0.028740234375	-0.1197509765625	9.80281494140625	-0.03814697265625	-0.02288818359375	0.00762939453125
2.015	-0.011975097656250001	-0.055085449218750006	9.7573095703125	-0.091552734375	-0.030517578125	0.06866455078125
2.024	-0.05987548828125	-0.1293310546875	9.8052099609375	-0.03814697265625	0.00762939453125	-0.0152587890625
2.033	0.0383203125	-0.0622705078125	9.829160156250001	0.1068115234375	0.08392333984375	-0.05340576171875
2.041	-0.07903564453125	-0.086220703125	9.762099609375001	0.0	0.0762939453125	0.09918212890625
2.051	-0.08861572265625	-0.08861572265625	9.8052099609375	0.030517578125	0.0457763671875	-0.00762939453125
2.06	-0.08382568359375	-0.076640625	9.776469726562501	-0.152587890625	0.06103515625	-0.25177001953125
2.069	-0.0383203125	-0.047900390625000004	9.793234863281251	0.030517578125	-0.18310546875	-0.152587890625
2.078	-0.028740234375	-0.07903564453125	9.762099609375001	-0.19073486328125	0.1373291015625	-0.0152587890625
2.088	-0.045505371093750004	-0.08382568359375	9.754914550781251	-0.05340576171875	-0.20599365234375	-0.18310546875
2.098	-0.10059082031250001	-0.14130615234375002	9.73096435546875	-0.091552734375	0.06103515625	0.0152587890625
2.107	0.03592529296875	-0.045505371093750004	9.77886474609375	-0.1220703125	-0.25177001953125	-0.38909912109375
2.116	-0.00239501953125	-0.13412109375	9.793234863281251	0.06866455078125	0.0457763671875	-0.03814697265625
2.124	-0.01676513671875	-0.1149609375	9.733359375000001	0.08392333984375	-0.030517578125	-0.09918212890625
2.134	-0.01676513671875	-0.14609619140625002	9.73096435546875	-0.02288818359375	0.06103515625	0.09918212890625
2.143	-0.04071533203125	-0.045505371093750004	9.84113525390625	-0.274658203125	-0.22125244140625	-0.05340576171875
2.152	0.009580078125	-0.09580078125000001	9.8483203125	-0.14495849609375	-0.1068115234375	0.030517578125
2.161	-0.023950195312500002	-0.10777587890625001	9.793234863281251	-0.1220703125	0.1220703125	-0.06103515625
2.17	-0.023950195312500002	-0.1389111328125	9.7956298828125	-0.00762939453125	0.1220703125	-0.1373291015625
2.18	-0.00718505859375	-0.1197509765625	9.77886474609375	-0.0457763671875	-0.06866455078125	-0.1068115234375
2.189	-0.050295410156250005	-0.13651611328125002	9.776469726562501	-0.06103515625	-0.1220703125	0.02288818359375
2.198	-0.026345214843750003	-0.09819580078125001	9.75012451171875	-0.0152587890625	-0.0152587890625	0.02288818359375
2.207	-0.0383203125	-0.07424560546875	9.7860498046875	0.00762939453125	0.02288818359375	-0.06866455078125
2.216	-0.00718505859375	-0.07903564453125	9.75012451171875	-0.152587890625	-0.14495849609375	-0.1678466796875
2.226	-0.08861572265625	-0.1293310546875	9.82676513671875	0.09918212890625	0.06866455078125	-0.03814697265625
2.235	-0.11017089843750001	-0.05987548828125	9.838740234375	-0.00762939453125	-0.14495849609375	0.18310546875
2.244	-0.0383203125	-0.10059082031250001	9.781259765625	-0.08392333984375	0.03814697265625	0.02288818359375
2.253	0.047900390625000004	-0.076640625	9.81718505859375	-0.02288818359375	-0.11444091796875	0.02288818359375
2.263	-0.0718505859375	-0.1197509765625	9.836345214843751	-0.213623046875	-0.1220703125	0.0152587890625
2.272	-0.07903564453125	-0.07424560546875	9.79083984375	-0.08392333984375	0.0	-0.0152587890625
2.281	-0.10777587890625001	-0.10298583984375001	9.77886474609375	0.02288818359375	-0.030517578125	0.1068115234375
2.29	-0.055085449218750006	-0.052690429687500005	9.8483203125	-0.17547607421875	0.00762939453125	-0.06866455078125
2.298	0.0143701171875	-0.10538085937500001	9.86508544921875	-0.030517578125	0.00762939453125	-0.274658203125
2.308	0.067060546875	-0.01916015625	9.742939453125	-0.16021728515625	-0.02288818359375	0.1373291015625
2.317	0.0143701171875	-0.10777587890625001	9.800419921875001	-0.06103515625	-0.23651123046875	-0.0457763671875
2.326	-0.050295410156250005	-0.14609619140625002	9.73575439453125	0.02288818359375	-0.14495849609375	0.0
2.334	-0.076640625	-0.08861572265625	9.87945556640625	0.03814697265625	-0.1220703125	0.08392333984375
2.343	-0.0718505859375	-0.01676513671875	9.915380859375	0.0152587890625	-0.06103515625	0.0762939453125
2.353	-0.009580078125	-0.09819580078125001	9.781259765625	-0.14495849609375	-0.00762939453125	-0.0152587890625
2.362	-0.03113525390625	-0.10059082031250001	9.776469726562501	-0.14495849609375	0.0152587890625	-0.05340576171875
2.371	0.047900390625000004	-0.0622705078125	9.75012451171875	-0.08392333984375	0.0152587890625	-0.030517578125
2.38	-0.05748046875	-0.09101074218750001	9.8339501953125	-0.0152587890625	-0.1678466796875	-0.14495849609375
2.39	-0.026345214843750003	-0.15088623046875002	9.84592529296875	-0.0457763671875	-0.03814697265625	-0.1983642578125
2.4	-0.023950195312500002	-0.11735595703125	9.733359375000001	-0.091552734375	-0.02288818359375	-0.11444091796875
2.409	-0.023950195312500002	-0.1293310546875	9.7668896484375	0.00762939453125	0.030517578125	0.00762939453125
2.417	-0.00718505859375	-0.09819580078125001	9.819580078125	-0.19073486328125	0.0762939453125	0.06103515625
2.426	0.04071533203125	-0.10777587890625001	9.78844482421875	0.00762939453125	-0.0457763671875	0.06866455078125
2.435	-0.03592529296875	-0.055085449218750006	9.79083984375	-0.091552734375	-0.091552734375	0.00762939453125
2.444	-0.10298583984375001	-0.08382568359375	9.81718505859375	-0.14495849609375	-0.00762939453125	-0.06103515625
2.454	-0.12214599609375	-0.16046630859375	9.740544433593751	-0.12969970703125	-0.11444091796875	-0.030517578125
2.463	-0.026345214843750003	-0.076640625	9.82676513671875	-0.1220703125	-0.11444091796875	-0.06866455078125
2.472	0.0335302734375	-0.1197509765625	9.76449462890625	0.0762939453125	0.1220703125	0.0152587890625
2.481	-0.0047900390625	-0.11017089843750001	9.90580078125	-0.05340576171875	0.06866455078125	0.030517578125
2.49	-0.03113525390625	-0.10298583984375001	9.896220703125001	-0.00762939453125	0.0	-0.16021728515625
2.499	-0.0335302734375	-0.076640625	9.80281494140625	-0.12969970703125	0.05340576171875	-0.22125244140625
2.508	-0.009580078125	-0.11017089843750001	9.853110351562501	-0.00762939453125	-0.06103515625	-0.03814697265625
2.516	0.01676513671875	-0.1149609375	9.81718505859375	0.0152587890625	0.03814697265625	-0.0457763671875
2.526	-0.055085449218750006	-0.09101074218750001	9.71180419921875	0.030517578125	-0.06866455078125	0.03814697265625
2.534	0.011975097656250001	-0.09819580078125001	9.86987548828125	-0.1983642578125	-0.09918212890625	-0.11444091796875
2.543	0.0047900390625	-0.0814306640625	9.79802490234375	-0.0152587890625	0.17547607421875	-0.06103515625
2.552	-0.0431103515625	-0.14130615234375002	9.7668896484375	-0.19073486328125	0.06103515625	-0.152587890625
2.562	0.01676513671875	-0.07903564453125	9.85071533203125	-0.08392333984375	-0.1220703125	0.03814697265625
2.571	-0.047900390625000004	-0.09340576171875001	9.853110351562501	-0.08392333984375	-0.0152587890625	-0.2288818359375
2.58	-0.026345214843750003	-0.10059082031250001	9.75970458984375	0.0152587890625	0.0	-0.05340576171875
2.589	-0.009580078125	-0.06945556640625	9.72617431640625	0.06866455078125	0.05340576171875	0.05340576171875
2.597	-0.047900390625000004	-0.1149609375	9.71180419921875	-0.213623046875	-0.08392333984375	-0.0457763671875
2.607	-0.08861572265625	-0.045505371093750004	9.8339501953125	0.00762939453125	-0.0152587890625	-0.0457763671875
2.616	-0.0718505859375	-0.1197509765625	9.836345214843751	-0.1220703125	-0.09918212890625	0.06103515625
2.626	-0.0622705078125	-0.06466552734375	9.72138427734375	-0.12969970703125	-0.1678466796875	-0.05340576171875
2.635	-0.0047900390625	-0.09340576171875001	9.7716796875	-0.1068115234375	-0.030517578125	0.05340576171875
2.643	-0.01916015625	-0.07903564453125	9.769284667968751	-0.06103515625	-0.0457763671875	0.152587890625
2.653	-0.0383203125	-0.09819580078125001	9.7956298828125	-0.1373291015625	0.0	0.0
2.662	-0.05748046875	-0.07903564453125	9.8339501953125	-0.0152587890625	-0.1068115234375	-0.091552734375
2.672	-0.03592529296875	-0.03592529296875	9.78844482421875	-0.11444091796875	-0.0762939453125	-0.20599365234375
2.681	-0.045505371093750004	-0.086220703125	9.81239501953125	-0.22125244140625	-0.030517578125	-0.1373291015625
2.691	0.01676513671875	-0.124541015625	9.781259765625	0.05340576171875	-0.06103515625	-0.14495849609375
2.7	-0.01916015625	-0.1197509765625	9.89861572265625	-0.06103515625	0.0762939453125	0.091552734375
2.709	-0.1197509765625	-0.06945556640625	9.9249609375	-0.152587890625	0.0	0.0152587890625
2.718	-0.01916015625	-0.13172607421875002	9.83155517578125	-0.152587890625	-0.14495849609375	0.17547607421875
2.728	-0.10777587890625001	-0.0814306640625	9.75012451171875	-0.0762939453125	0.0762939453125	-0.1678466796875
2.738	-0.0047900390625	-0.15088623046875002	9.7860498046875	-0.152587890625	0.03814697265625	0.0457763671875
2.746	0.04071533203125	-0.10059082031250001	9.776469726562501	0.08392333984375	-0.20599365234375	-0.1678466796875
2.755	0.045505371093750004	-0.1293310546875	9.7716796875	-0.09918212890625	-0.00762939453125	-0.06103515625
2.765	-0.0143701171875	-0.06466552734375	9.73575439453125	-0.1068115234375	-0.12969970703125	-0.16021728515625
2.775	-0.047900390625000004	-0.08382568359375	9.8052099609375	-0.11444091796875	-0.0457763671875	-0.06103515625
2.784	-0.05748046875	-0.0718505859375	9.90580078125	-0.08392333984375	0.02288818359375	-0.06866455078125
2.793	-0.00718505859375	-0.0814306640625	9.829160156250001	0.1220703125	-0.1220703125	0.1983642578125
2.802	-0.01676513671875	-0.13651611328125002	9.73575439453125	-0.0457763671875	-0.1068115234375	0.0762939453125
2.811	-0.00718505859375	-0.12214599609375	9.75251953125	-0.06103515625	0.1678466796875	0.08392333984375
2.821	-0.05987548828125	-0.09580078125000001	9.800419921875001	0.00762939453125	0.1373291015625	-0.03814697265625
2.83	-0.0431103515625	-0.10298583984375001	9.742939453125	-0.00762939453125	-0.0762939453125	-0.091552734375
2.839	-0.086220703125	-0.12693603515625002	9.74533447265625	-0.030517578125	0.030517578125	-0.03814697265625
2.848	-0.02155517578125	-0.06466552734375	9.7668896484375	0.05340576171875	0.23651123046875	0.0457763671875
2.856	0.01676513671875	-0.13651611328125002	9.82676513671875	-0.1068115234375	-0.02288818359375	-0.18310546875
2.866	0.00239501953125	-0.11017089843750001	9.75012451171875	-0.03814697265625	0.05340576171875	0.0457763671875
2.874	-0.01676513671875	-0.10059082031250001	9.8435302734375	-0.03814697265625	0.0152587890625	-0.030517578125
2.883	-0.026345214843750003	-0.07903564453125	9.814790039062501	-0.0762939453125	0.06103515625	0.16021728515625
2.892	-0.045505371093750004	-0.13651611328125002	9.75012451171875	-0.06866455078125	0.00762939453125	-0.2288818359375
2.902	-0.09101074218750001	-0.06466552734375	9.7668896484375	-0.17547607421875	0.091552734375	0.0152587890625
2.911	-0.07424560546875	-0.076640625	9.800419921875001	-0.00762939453125	0.1068115234375	0.17547607421875
2.92	-0.0335302734375	-0.1389111328125	9.75970458984375	-0.02288818359375	-0.08392333984375	0.0
2.929	0.00239501953125	-0.05987548828125	9.77407470703125	-0.14495849609375	0.030517578125	-0.1068115234375
2.938	-0.04071533203125	-0.07424560546875	9.7716796875	-0.06103515625	-0.08392333984375	-0.0152587890625
2.948	0.03592529296875	-0.07424560546875	9.82676513671875	-0.18310546875	0.08392333984375	-0.2288818359375
2.957	-0.00718505859375	-0.09101074218750001	9.75251953125	-0.06866455078125	-0.05340576171875	0.17547607421875
2.966	-0.06945556640625	-0.12214599609375	9.79802490234375	-0.03814697265625	-0.0762939453125	-0.0152587890625
2.975	0.0143701171875	-0.08861572265625	9.881850585937501	0.11444091796875	0.00762939453125	-0.0152587890625
2.984	-0.04071533203125	-0.10298583984375001	9.838740234375	-0.08392333984375	-0.11444091796875	0.05340576171875
2.994	-0.0143701171875	-0.04071533203125	9.704619140625	0.0457763671875	-0.213623046875	0.12969970703125
3.002	0.02155517578125	-0.143701171875	9.829160156250001	-0.0457763671875	0.03814697265625	0.0762939453125
3.011	-0.06945556640625	-0.0814306640625	9.829160156250001	-0.05340576171875	-0.11444091796875	-0.1220703125
3.02	-0.05987548828125	-0.11017089843750001	9.762099609375001	0.091552734375	-0.05340576171875	-0.030517578125
3.03	-0.009580078125	-0.1772314453125	9.75970458984375	-0.00762939453125	-0.00762939453125	-0.05340576171875
3.039	0.045505371093750004	-0.067060546875	9.793234863281251	-0.1373291015625	-0.16021728515625	0.03814697265625
3.048	0.0431103515625	-0.086220703125	9.754914550781251	-0.03814697265625	-0.06103515625	-0.030517578125
3.057	-0.07903564453125	-0.03113525390625	9.776469726562501	-0.08392333984375	-0.17547607421875	-0.06103515625
3.067	-0.0814306640625	-0.10777587890625001	9.8435302734375	-0.1373291015625	-0.11444091796875	-0.03814697265625
3.077	-0.076640625	-0.0814306640625	9.781259765625	-0.0152587890625	-0.11444091796875	0.030517578125
3.086	-0.01676513671875	-0.11017089843750001	9.81718505859375	-0.00762939453125	-0.08392333984375	0.1678466796875
3.096	0.143701171875	-0.047900390625000004	9.8722705078125	-0.22125244140625	3.265380859375	-0.25177001953125
3.105	-0.5245092773437501	-0.07903564453125	9.78365478515625	0.0457763671875	-0.091552734375	0.05340576171875
3.115	-0.14609619140625002	-0.067060546875	9.80281494140625	-0.11444091796875	-0.3509521484375	-0.091552734375
3.125	-0.01676513671875	-0.076640625	9.7860498046875	0.00762939453125	1.15203857421875	-0.08392333984375
3.134	-0.04071533203125	-0.13172607421875002	9.769284667968751	-0.02288818359375	-1.0528564453125	0.03814697265625
3.144	-0.08382568359375	-0.10777587890625001	9.77407470703125	0.19073486328125	-1.8157958984375	-0.20599365234375
3.153	0.026345214843750003	-0.047900390625000004	9.829160156250001	0.1068115234375	-1.19781494140625	0.1220703125
3.163	0.0383203125	-0.076640625	9.877060546875	-0.0762939453125	0.19073486328125	-0.091552734375
3.172	-0.10298583984375001	-0.076640625	9.85071533203125	-0.05340576171875	-0.58746337890625	-0.05340576171875
3.181	-0.009580078125	-0.12693603515625002	9.829160156250001	0.091552734375	0.0152587890625	0.030517578125
3.19	-0.01676513671875	-0.07903564453125	9.814790039062501	-0.17547607421875	-0.17547607421875	-0.05340576171875
3.2	-0.045505371093750004	-0.1149609375	9.7716796875	-0.17547607421875	-0.00762939453125	-0.0762939453125
3.21	-0.06945556640625	-0.05748046875	9.81	-0.20599365234375	-0.152587890625	-0.02288818359375
3.219	-0.0335302734375	-0.1293310546875	9.7860498046875	-0.152587890625	0.12969970703125	0.0152587890625
3.228	-0.055085449218750006	-0.09340576171875001	9.754914550781251	-0.0152587890625	0.091552734375	-0.0762939453125
3.237	-0.01676513671875	-0.055085449218750006	9.781259765625	0.0457763671875	0.09918212890625	-0.02288818359375
3.246	-0.0814306640625	-0.1197509765625	9.881850585937501	-0.0762939453125	-0.19073486328125	0.0152587890625
3.255	-0.0718505859375	-0.05748046875	9.915380859375	0.00762939453125	0.091552734375	-0.06103515625
3.264	-0.026345214843750003	-0.10538085937500001	9.86508544921875	-0.091552734375	0.030517578125	-0.2288818359375
3.273	-0.05748046875	-0.05748046875	9.68306396484375	-0.12969970703125	-0.06103515625	0.0762939453125
3.282	-0.0622705078125	-0.08861572265625	9.762099609375001	-0.09918212890625	-0.0457763671875	-0.06866455078125
3.293	-0.10059082031250001	-0.10059082031250001	9.877060546875	0.11444091796875	-0.05340576171875	-0.1220703125
3.302	-0.05748046875	-0.12693603515625002	9.838740234375	-0.2288818359375	0.0	0.0152587890625
3.311	-0.055085449218750006	-0.03113525390625	9.829160156250001	-0.091552734375	-0.08392333984375	-0.06103515625
3.32	-0.01676513671875	-0.11256591796875001	9.877060546875	-0.08392333984375	0.12969970703125	-0.091552734375
3.33	0.009580078125	-0.076640625	9.8435302734375	-0.05340576171875	-0.0457763671875	-0.06866455078125
3.339	-0.06466552734375	-0.09819580078125001	9.814790039062501	-0.03814697265625	-0.11444091796875	-0.02288818359375
3.348	-0.00718505859375	-0.10777587890625001	9.76449462890625	-0.0152587890625	0.03814697265625	-0.091552734375
3.357	-0.05987548828125	-0.1149609375	9.934541015625001	-0.09918212890625	0.030517578125	-0.06103515625
3.366	-0.09580078125000001	-0.08861572265625	9.8052099609375	0.0152587890625	0.1068115234375	0.030517578125
3.376	-0.00718505859375	-0.045505371093750004	9.807604980468751	0.02288818359375	-0.0457763671875	-0.06866455078125
3.384	0.011975097656250001	-0.07424560546875	9.78365478515625	-0.1678466796875	0.02288818359375	-0.2288818359375
3.393	-0.0431103515625	-0.13172607421875002	9.81239501953125	-0.06103515625	-0.06866455078125	-0.091552734375
3.402	-0.08382568359375	-0.1149609375	9.819580078125	-0.17547607421875	-0.00762939453125	0.0152587890625
3.411	-0.0431103515625	-0.050295410156250005	9.7956298828125	-0.09918212890625	-0.0152587890625	-0.05340576171875
3.421	-0.0383203125	-0.026345214843750003	9.742939453125	-0.11444091796875	-0.26702880859375	-0.1068115234375
3.431	-0.05987548828125	-0.067060546875	9.80281494140625	-0.05340576171875	0.08392333984375	-0.0762939453125
3.44	-0.052690429687500005	-0.17483642578125	9.75251953125	-0.0762939453125	-0.05340576171875	-0.20599365234375
3.449	-0.023950195312500002	-0.07424560546875	9.709409179687501	0.03814697265625	-0.19073486328125	-0.0762939453125
3.459	-0.0047900390625	-0.067060546875	9.84113525390625	0.20599365234375	-0.0152587890625	-0.0762939453125
3.468	-0.05987548828125	-0.067060546875	9.8052099609375	-0.1068115234375	0.06866455078125	0.02288818359375
3.477	-0.0814306640625	-0.011975097656250001	9.821975097656251	-0.1220703125	-0.23651123046875	0.05340576171875
3.486	0.0383203125	-0.08382568359375	9.78844482421875	-0.08392333984375	-0.1068115234375	-0.02288818359375
3.496	-0.045505371093750004	-0.067060546875	9.8435302734375	0.0	-0.152587890625	-0.08392333984375
3.506	-0.01916015625	-0.0383203125	9.800419921875001	0.00762939453125	-0.12969970703125	-0.1068115234375
3.515	-0.0143701171875	-0.09101074218750001	9.7381494140625	-0.0152587890625	-0.0762939453125	-0.09918212890625
3.524	0.0431103515625	-0.12214599609375	9.800419921875001	-0.09918212890625	0.11444091796875	0.00762939453125
3.533	0.009580078125	-0.1197509765625	9.84113525390625	-0.16021728515625	0.02288818359375	-0.18310546875
3.542	-0.045505371093750004	-0.1389111328125	9.77886474609375	-0.23651123046875	0.22125244140625	0.00762939453125
3.551	0.055085449218750006	-0.13412109375	9.6998291015625	-0.18310546875	-0.00762939453125	-0.02288818359375
3.561	-0.045505371093750004	-0.07424560546875	9.86508544921875	-0.1373291015625	-0.22125244140625	-0.030517578125
3.57	0.028740234375	-0.05987548828125	9.7860498046875	0.152587890625	-0.12969970703125	-0.12969970703125
3.579	-0.01676513671875	-0.08861572265625	9.857900390625	-0.22125244140625	0.22125244140625	-0.22125244140625
3.589	-0.047900390625000004	-0.052690429687500005	9.8339501953125	0.1678466796875	-0.09918212890625	-0.0762939453125
3.598	-0.0383203125	-0.07424560546875	9.781259765625	-0.19073486328125	0.00762939453125	-0.152587890625
3.607	-0.11256591796875001	0.02155517578125	9.9297509765625	-0.0457763671875	0.25177001953125	0.0457763671875
3.616	0.0335302734375	-0.124541015625	9.80281494140625	0.030517578125	0.213623046875	-0.0762939453125
3.624	0.01676513671875	-0.124541015625	9.877060546875	0.03814697265625	-0.19073486328125	-0.03814697265625
3.634	0.06466552734375	-0.10777587890625001	9.61121337890625	-0.09918212890625	0.0	0.06103515625
3.643	-0.19639160156250002	0.047900390625000004	9.836345214843751	-0.0152587890625	0.1678466796875	0.06866455078125
3.651	-0.03592529296875	-0.124541015625	9.980046386718751	-0.03814697265625	0.0152587890625	-0.1678466796875
3.66	0.09819580078125001	-0.124541015625	9.733359375000001	0.16021728515625	-1.99127197265625	0.03814697265625
3.671	-1.1687695312500002	-0.24908203125	9.762099609375001	-0.396728515625	2.62451171875	-4.20379638671875
3.682	-2.35669921875	-0.536484375	9.836345214843751	0.6103515625	-0.335693359375	-27.44293212890625
3.692	0.6634204101562501	-0.01916015625	9.91777587890625	0.77056884765625	-2.83050537109375	-27.252197265625
3.702	3.7410205078125003	0.28261230468750004	9.934541015625001	-0.0457763671875	2.14385986328125	-2.51007080078125
3.713	-1.044228515625	-0.2682421875	9.83155517578125	0.49591064453125	-5.43975830078125	0.11444091796875
3.723	-1.31965576171875	-0.07903564453125	9.85071533203125	0.29754638671875	0.40435791015625	-5.1422119140625
3.732	0.0	0.20357666015625	9.814790039062501	0.45013427734375	-2.79998779296875	-5.4779052734375
3.742	0.6658154296875001	-0.35685791015625	9.836345214843751	-0.00762939453125	-1.01470947265625	3.47900390625
3.751	0.0718505859375	-0.277822265625	9.9010107421875	-0.0457763671875	-0.69427490234375	6.23321533203125
3.764	-3.6931201171875	-1.3483959960937502	9.61121337890625	2.67791748046875	-10.39886474609375	-13.00048828125
3.775	-1.0394384765625	-2.0261865234375	9.881850585937501	-2.96783447265625	9.77325439453125	-23.78082275390625
3.786	-0.028740234375	-0.8478369140625001	9.83155517578125	1.0833740234375	-2.84576416015625	-27.8472900390625
3.798	-1.389111328125	-0.3496728515625	10.049501953125	1.068115234375	-10.467529296875	-42.0684814453125
3.81	-4.35654052734375	0.30895751953125	15.1987939453125	-33.59222412109375	-12.67242431640625	-89.19525146484375
3.822	-6.744375000000001	-0.63468017578125	17.29922607421875	-117.1875	15.02227783203125	-168.14422607421875
3.834	-5.1732421875000005	-0.41194335937500004	17.37826171875	-204.64324951171875	71.6705322265625	-220.123291015625
3.847	-4.581672363281251	1.7244140625000002	8.4687890625	-250.0	-33.5693359375	-250.0
3.86	-2.37825439453125	-0.7065307617187501	19.61940124511719	-250.0	161.0565185546875	-250.0
3.872	-6.9407666015625	-1.43701171875	18.67875732421875	-250.0	136.75689697265625	-250.0
3.886	-2.55069580078125	-2.2441333007812503	19.49785400390625	-250.0	170.00579833984375	-250.0
3.898	-3.0225146484375003	-4.3445654296875	19.5673095703125	-225.88348388671875	198.34136962890625	-186.33270263671875
3.911	-4.6702880859375	-5.1684521484375	19.61940124511719	-195.68634033203125	228.7750244140625	-140.899658203125
3.923	-1.7962646484375	-4.87865478515625	19.61940124511719	-210.63995361328125	249.99237060546875	-145.37811279296875
3.936	-0.0335302734375	-4.83075439453125	18.24286376953125	-221.00830078125	249.99237060546875	-148.56719970703125
3.948	0.5867797851562501	-3.3961376953125	17.1627099609375	-250.0	249.99237060546875	-166.1224365234375
3.96	3.0919702148437502	-1.0370434570312501	15.795153808593751	-250.0	249.99237060546875	-174.73602294921875
3.973	3.0392797851562503	-1.4178515625	13.115126953125001	-250.0	249.99237060546875	-186.737060546875
3.985	4.35654052734375	-1.18553466796875	11.03625	-250.0	249.99237060546875	-170.2880859375
3.998	3.5398388671875	-0.6035449218750001	10.13332763671875	-250.0	249.99237060546875	-135.55908203125
4.011	1.3843212890625	-0.25147705078125	10.02076171875	-250.0	249.99237060546875	-112.79296875
4.022	1.24780517578125	-0.18202148437500001	9.297465820312501	-250.0	249.99237060546875	-103.057861328125
4.035	1.53999755859375	-0.8286767578125	8.44723388671875	-250.0	249.99237060546875	-95.02410888671875
4.047	1.839375	-0.74006103515625	7.276069335937501	-250.0	249.99237060546875	-105.87310791015625
4.059	3.65719482421875	0.026345214843750003	5.6570361328125	-250.0	249.99237060546875	-147.8424072265625
4.071	7.6808276367187505	3.47996337890625	1.37234619140625	-250.0	249.99237060546875	-195.22857666015625
4.084	12.444521484375	10.509345703125	-6.3994921875	-250.0	249.99237060546875	-250.0
4.097	19.61940124511719	12.135563964843751	-19.62	-223.785400390625	249.99237060546875	-250.0
4.109	19.61940124511719	9.30944091796875	-19.62	2.9754638671875	226.73797607421875	-199.30267333984375
4.121	19.61940124511719	5.2858081054687505	-19.62	176.3458251953125	-73.18115234375	-105.67474365234375
4.134	19.61940124511719	5.6187158203125005	-19.62	249.99237060546875	-250.0	-25.15411376953125
4.147	19.61940124511719	6.152805175781251	-14.90899658203125	249.99237060546875	-250.0	96.10748291015625
4.159	19.61940124511719	4.648732910156251	-0.7520361328125	249.99237060546875	-250.0	226.50146484375
4.171	19.61940124511719	8.46160400390625	13.02890625	249.99237060546875	-250.0	249.99237060546875
4.184	2.11959228515625	11.448193359375	19.61940124511719	249.99237060546875	-250.0	249.99237060546875
4.197	-19.62	10.56443115234375	19.61940124511719	249.99237060546875	-250.0	159.99603271484375
4.209	-19.62	-11.819421386718751	19.61940124511719	249.99237060546875	-250.0	-42.73223876953125
4.222	-19.62	-19.62	19.61940124511719	45.61614990234375	-77.47650146484375	-69.51141357421875
4.235	-19.62	-19.62	19.61940124511719	-137.44354248046875	56.25152587890625	-33.8592529296875
4.248	-19.62	-8.902287597656251	19.61940124511719	-250.0	141.83807373046875	-38.5894775390625
4.261	-19.62	-6.856940917968751	19.61940124511719	-250.0	249.99237060546875	-108.49761962890625
4.274	-9.103469238281251	-5.297783203125	19.61940124511719	-250.0	249.99237060546875	-45.84503173828125
4.286	-3.3769775390625	-3.89669677734375	19.61940124511719	-250.0	249.99237060546875	19.24896240234375
4.298	2.8500732421875004	-2.90036865234375	19.299067382812503	-250.0	249.99237060546875	44.97528076171875
4.31	6.8425708007812505	0.24189697265625001	15.98675537109375	-250.0	249.99237060546875	35.919189453125
4.322	10.075847167968751	1.9495458984375	12.245734863281251	-250.0	249.99237060546875	-16.04461669921875
4.335	11.7882861328125	7.34073486328125	9.93693603515625	-250.0	249.99237060546875	-91.064453125
4.347	16.26936767578125	17.272880859375	2.7063720703125003	-250.0	249.99237060546875	-192.42095947265625
4.361	19.61940124511719	19.61940124511719	-10.878178710937501	-250.0	249.99237060546875	-250.0
4.373	19.61940124511719	19.61940124511719	-19.62	-250.0	249.99237060546875	-228.84368896484375
4.385	19.61940124511719	13.2923583984375	-19.62	-34.820556640625	249.99237060546875	-54.32891845703125
4.399	19.61940124511719	11.946357421875001	-19.62	192.42095947265625	80.14678955078125	83.8623046875
4.411	19.61940124511719	9.635163574218751	-19.62	249.99237060546875	-101.31072998046875	157.8369140625
4.423	19.61940124511719	4.972060546875	-19.62	249.99237060546875	-250.0	105.38482666015625
4.435	19.61940124511719	2.2010229492187503	-10.839858398437501	249.99237060546875	-250.0	0.90789794921875
4.448	19.61940124511719	-1.4178515625	-6.17675537109375	249.99237060546875	-250.0	9.613037109375
4.46	19.61940124511719	-1.082548828125	-2.2776635742187503	249.99237060546875	-250.0	60.76812744140625
4.472	19.61940124511719	2.4668701171875003	6.497687988281251	249.99237060546875	-250.0	165.9698486328125
4.485	10.73208251953125	6.3228515625	18.08000244140625	249.99237060546875	-250.0	237.26654052734375
4.498	-6.16238525390625	8.80169677734375	19.61940124511719	249.99237060546875	-250.0	249.99237060546875
4.51	-11.045830078125	-1.64537841796875	19.61940124511719	249.99237060546875	-250.0	226.90582275390625
4.524	-9.98483642578125	-2.9722192382812502	19.61940124511719	249.99237060546875	-250.0	115.08941650390625
4.536	-11.21587646484375	-12.695998535156251	19.61940124511719	249.99237060546875	-250.0	84.66339111328125
4.549	-16.1376416015625	-16.92560302734375	19.61940124511719	124.70245361328125	-165.34423828125	86.06719970703125
4.561	0.29219238281250004	-12.751083984375	19.61940124511719	-138.1988525390625	-125.0	-32.85980224609375
4.575	-18.096767578125	-9.33339111328125	19.61940124511719	-250.0	61.5081787109375	-65.68145751953125
4.587	-4.76369384765625	-6.00910400390625	19.61940124511719	-250.0	148.6358642578125	-55.88531494140625
4.599	-2.3327490234375	-3.14466064453125	19.61940124511719	-250.0	207.95440673828125	-38.96331787109375
4.612	-0.10538085937500001	-0.5221142578125	19.61940124511719	-250.0	239.34173583984375	-35.71319580078125
4.623	0.03592529296875	2.08845703125	17.833315429687502	-250.0	245.361328125	-66.314697265625
4.635	1.2214599609375	5.81750244140625	12.3343505859375	-250.0	249.99237060546875	-95.61920166015625
4.647	7.87721923828125	8.52626953125	1.9974462890625	-250.0	249.99237060546875	-77.50701904296875
4.66	11.005114746093751	8.58135498046875	-2.4956103515625	-250.0	249.99237060546875	-30.7464599609375
4.673	10.202783203125	7.3814501953125005	-2.8309130859375	-250.0	249.99237060546875	-32.958984375
4.685	12.4588916015625	8.116721191406251	-4.3613305664062505	-250.0	249.99237060546875	-93.84918212890625
4.699	16.78190185546875	10.870993652343751	-7.2688842773437505	-250.0	249.99237060546875	-190.49072265625
4.711	19.61940124511719	14.528188476562502	-14.68865478515625	-250.0	249.99237060546875	-223.6785888671875
4.724	19.61940124511719	12.844489746093751	-19.62	-227.11181640625	249.99237060546875	-72.93701171875
4.736	19.61940124511719	1.9878662109375	-19.62	35.59112548828125	249.99237060546875	236.6180419921875
4.748	19.61940124511719	1.76512939453125	-19.62	249.99237060546875	-31.219482421875	249.99237060546875
4.761	19.61940124511719	13.1582373046875	-19.62	249.99237060546875	-250.0	249.99237060546875
4.773	19.61940124511719	15.76162353515625	-9.78844482421875	249.99237060546875	-250.0	249.99237060546875
4.786	19.61940124511719	13.5606005859375	3.1686108398437502	249.99237060546875	-250.0	249.99237060546875
4.798	19.61940124511719	6.8353857421875	19.61940124511719	249.99237060546875	-250.0	249.99237060546875
4.81	19.61940124511719	4.847519531250001	19.61940124511719	249.99237060546875	-250.0	249.99237060546875
4.823	3.6068994140625	9.29986083984375	19.61940124511719	249.99237060546875	-250.0	249.99237060546875
4.836	-17.28964599609375	12.3630908203125	19.61940124511719	249.99237060546875	-250.0	249.99237060546875
4.848	-19.62	10.540480957031251	19.61940124511719	249.99237060546875	-250.0	67.626953125
4.86	-12.238549804687501	-2.02379150390625	19.61940124511719	249.99237060546875	-250.0	-52.3834228515625
4.874	-8.6077001953125	-7.558681640625	19.61940124511719	146.4691162109375	-250.0	-81.03179931640625
4.887	-13.18458251953125	-13.6372412109375	19.61940124511719	16.31927490234375	-206.52008056640625	-111.480712890625
4.9	-14.798825683593751	-15.32572998046875	19.61940124511719	-141.31927490234375	-131.34765625	-171.38671875
4.914	-5.9635986328125	-9.35255126953125	19.61940124511719	-250.0	-2.55584716796875	-154.84619140625
4.925	0.067060546875	-3.7410205078125003	19.61940124511719	-250.0	73.79150390625	-100.28076171875
4.937	1.657353515625	1.5950830078125	19.61940124511719	-250.0	158.6761474609375	-52.703857421875
4.95	0.69216064453125	5.17084716796875	19.61940124511719	-250.0	190.55938720703125	-68.17626953125
4.962	0.59156982421875	7.36468505859375	14.96647705078125	-250.0	170.3033447265625	-108.5205078125
4.974	0.65384033203125	7.424560546875	10.571616210937501	-250.0	121.29974365234375	-135.2081298828125
4.986	-1.60705810546875	12.2193896484375	3.343447265625	-250.0	76.34735107421875	-176.64337158203125
4.999	0.8574169921875	11.752360839843751	-4.09308837890625	-250.0	135.33782958984375	-194.15283203125
5.012	3.3338671875	11.0697802734375	-7.6281372070312505	-250.0	249.99237060546875	-166.52679443359375
5.024	4.837939453125	10.279423828125001	-10.63388671875	-250.0	249.99237060546875	-145.7672119140625
5.038	6.770720214843751	7.848479003906251	-13.953383789062501	-250.0	249.99237060546875	-152.313232421875
5.05	8.21970703125	7.197033691406251	-16.04902587890625	-250.0	249.99237060546875	-172.76763916015625
5.063	17.670454101562502	4.11703857421875	-19.62	-192.75665283203125	249.99237060546875	-156.94427490234375
5.075	19.61940124511719	0.60114990234375	-19.62	-9.46044921875	249.99237060546875	-42.7093505859375
5.088	19.61940124511719	-4.6607080078125005	-19.62	169.3267822265625	249.99237060546875	128.1280517578125
5.1	19.61940124511719	-7.52754638671875	-19.62	249.99237060546875	249.99237060546875	249.99237060546875
5.113	19.61940124511719	-1.08494384765625	-19.62	249.99237060546875	236.7095947265625	249.99237060546875
5.126	19.61940124511719	12.38464599609375	-19.62	249.99237060546875	230.682373046875	249.99237060546875
5.138	14.580878906250001	19.61940124511719	-19.62	249.99237060546875	249.99237060546875	249.99237060546875
5.15	12.40859619140625	19.61940124511719	-15.76162353515625	249.99237060546875	249.99237060546875	249.99237060546875
5.163	7.77183837890625	19.61940124511719	-1.3843212890625	249.99237060546875	241.058349609375	249.99237060546875
5.175	4.2152343750000005	19.61940124511719	14.78924560546875	249.99237060546875	143.7225341796875	249.99237060546875
5.186	0.59635986328125	19.61940124511719	19.61940124511719	249.99237060546875	34.8358154296875	249.99237060546875
5.197	5.05828125	19.61940124511719	19.61940124511719	249.99237060546875	-1.9989013671875	249.99237060546875
5.21	5.489384765625	15.591577148437501	19.61940124511719	249.99237060546875	41.75567626953125	249.99237060546875
5.221	5.70254150390625	11.491303710937501	19.61940124511719	249.99237060546875	50.10223388671875	249.99237060546875
5.233	9.022038574218751	10.6195166015625	18.66438720703125	249.99237060546875	113.05999755859375	249.99237060546875
5.245	3.5398388671875	13.11752197265625	16.3005029296875	249.99237060546875	154.15191650390625	249.99237060546875
5.258	-1.350791015625	13.7617822265625	19.61940124511719	181.793212890625	45.21942138671875	249.99237060546875
5.269	1.3100756835937502	11.505673828125001	18.700312500000003	45.7763671875	-138.397216796875	249.99237060546875
5.281	8.305927734375	13.71627685546875	11.7212255859375	-32.67669677734375	-211.60125732421875	249.99237060546875
5.295	9.90580078125	17.2680908203125	8.782536621093751	-56.29730224609375	-250.0	249.99237060546875
5.307	8.41130859375	19.5194091796875	10.356064453125	-62.53814697265625	-250.0	249.99237060546875
5.319	5.604345703125	19.61940124511719	14.75571533203125	-71.61712646484375	-250.0	249.99237060546875
5.331	1.868115234375	19.61940124511719	19.61940124511719	-97.32818603515625	-250.0	249.99237060546875
5.344	2.0908520507812502	15.981965332031251	19.61940124511719	-114.471435546875	-250.0	249.99237060546875
5.356	2.6129663085937502	10.777587890625	19.61940124511719	-150.787353515625	-250.0	249.99237060546875
5.368	5.92048828125	5.23790771484375	19.61940124511719	-211.86065673828125	-250.0	249.99237060546875
5.381	9.6327685546875	3.90627685546875	19.61940124511719	-250.0	-171.6766357421875	249.99237060546875
5.394	13.984519042968751	8.3969384765625	19.61940124511719	-250.0	-17.98248291015625	249.99237060546875
5.406	16.365168457031253	13.919853515625	19.61940124511719	-250.0	68.65692138671875	249.99237060546875
5.419	16.6166455078125	16.3627734375	19.61940124511719	-250.0	128.387451171875	249.99237060546875
5.431	19.600839843750002	16.755556640625002	18.52547607421875	-250.0	103.3935546875	249.99237060546875
5.443	16.635805664062502	19.61940124511719	16.3484033203125	-250.0	109.15374755859375	249.99237060546875
5.455	14.1833056640625	19.61940124511719	12.5642724609375	-250.0	22.34649658203125	249.99237060546875
5.468	9.980046386718751	19.61940124511719	8.3202978515625	-250.0	19.3939208984375	249.99237060546875
5.48	7.144343261718751	19.61940124511719	0.6274951171875001	-250.0	45.0286865234375	249.99237060546875
5.492	5.154082031250001	19.61940124511719	-2.8500732421875004	-250.0	116.6534423828125	249.99237060546875
5.505	2.2848486328125	19.61940124511719	-3.36021240234375	-250.0	175.4150390625	249.99237060546875
5.516	1.33402587890625	19.61940124511719	-5.1133666992187505	-250.0	199.859619140625	217.09442138671875
5.529	4.53377197265625	19.61940124511719	-10.2075732421875	-250.0	245.1019287109375	165.53497314453125
5.541	7.8700341796875	17.253720703125	-10.406359863281251	-250.0	249.99237060546875	146.03424072265625
5.554	3.6308496093750002	13.64203125	-15.51254150390625	-250.0	249.99237060546875	115.264892578125
5.566	1.6813037109375002	9.67587890625	-11.59907958984375	-250.0	249.99237060546875	62.50762939453125
5.578	1.5831079101562502	7.041357421875	-11.0027197265625	-250.0	200.96588134765625	-2.3345947265625
5.591	2.03337158203125	5.506149902343751	-13.024116210937501	-250.0	138.95416259765625	-56.83135986328125
5.603	4.8068041992187505	2.55069580078125	-14.410832519531251	-250.0	76.8585205078125	-97.8240966796875
5.616	9.881850585937501	-0.9795629882812501	-15.759228515625	-250.0	89.10369873046875	-83.4503173828125
5.628	9.20406005859375	-2.3710693359375	-14.882651367187501	-224.69329833984375	115.8447265625	-48.60687255859375
5.642	11.498488769531251	-5.546865234375001	-10.15727783203125	-204.2083740234375	115.40985107421875	-15.44952392578125
5.654	9.63995361328125	-4.6032275390625	-8.77295654296875	-237.884521484375	84.1217041015625	5.36346435546875
5.666	9.45793212890625	-2.3135888671875002	-14.6766796875	-247.7874755859375	61.36322021484375	-3.11279296875
5.679	11.026669921875001	-2.6704467773437504	-16.91602294921875	-225.6927490234375	49.69024658203125	-3.662109375
5.691	14.56411376953125	-4.55772216796875	-15.701748046875	-202.07977294921875	41.595458984375	26.0772705078125
5.703	19.047590332031252	-3.1662158203125004	-19.4140283203125	-166.45050048828125	82.08465576171875	101.74560546875
5.715	19.61940124511719	-1.2981005859375	-19.62	-100.79193115234375	161.64398193359375	208.6639404296875
5.728	19.61940124511719	-0.277822265625	-19.62	-19.927978515625	179.35943603515625	249.99237060546875
5.74	19.61940124511719	2.1579125976562503	-19.62	65.74249267578125	235.93902587890625	249.99237060546875
5.752	19.61940124511719	4.0859033203125	-19.62	156.2042236328125	249.99237060546875	249.99237060546875
5.765	19.61940124511719	6.631809082031251	-19.62	227.9205322265625	249.99237060546875	249.99237060546875
5.777	19.61940124511719	10.15727783203125	-19.62	249.99237060546875	249.99237060546875	249.99237060546875
5.79	19.61940124511719	16.425043945312503	-19.62	249.99237060546875	249.99237060546875	249.99237060546875
5.803	19.61940124511719	19.61940124511719	-19.62	249.99237060546875	249.99237060546875	249.99237060546875
5.815	19.61940124511719	19.61940124511719	-19.62	249.99237060546875	249.99237060546875	249.99237060546875
5.827	15.186818847656252	19.61940124511719	-19.62	249.99237060546875	249.99237060546875	249.99237060546875
5.839	4.73016357421875	19.61940124511719	-19.62	249.99237060546875	249.99237060546875	249.99237060546875
5.852	-7.7143579101562505	19.61940124511719	-15.009587402343751	249.99237060546875	249.99237060546875	249.99237060546875
5.865	-15.0215625	19.61940124511719	-4.9433203125	249.99237060546875	151.763916015625	249.99237060546875
5.877	-6.3755419921875	19.61940124511719	7.24493408203125	249.99237060546875	-115.3411865234375	249.99237060546875
5.89	5.0463061523437505	19.61940124511719	13.95098876953125	249.99237060546875	-250.0	249.99237060546875
5.902	12.74389892578125	19.61940124511719	12.17388427734375	249.99237060546875	-250.0	249.99237060546875
5.914	9.75970458984375	17.64889892578125	13.17021240234375	249.99237060546875	-126.02996826171875	249.99237060546875
5.926	-2.18665283203125	13.5222802734375	17.3447314453125	249.99237060546875	-39.24560546875	249.99237060546875
5.939	-8.861572265625	10.14290771484375	14.588063964843752	249.99237060546875	9.0179443359375	249.99237060546875
5.951	-9.7668896484375	8.2771875	8.34185302734375	249.99237060546875	63.4613037109375	249.99237060546875
5.963	-9.9680712890625	7.668852539062501	6.33003662109375	249.99237060546875	111.10687255859375	190.948486328125
5.976	-6.77551025390625	4.86428466796875	6.1168798828125	249.99237060546875	65.58990478515625	191.74957275390625
5.988	-2.4956103515625	3.5637890625	7.283254394531251	218.58978271484375	-17.25006103515625	219.0093994140625
5.999	1.09452392578125	2.7830126953125003	9.6327685546875	137.62664794921875	-112.19024658203125	249.99237060546875
6.011	4.4978466796875	3.0225146484375003	11.00990478515625	59.783935546875	-191.68853759765625	249.99237060546875
6.023	4.7133984375	4.581672363281251	12.866044921875	-3.753662109375	-250.0	249.99237060546875
6.035	5.0726513671875	6.785090332031251	14.188095703125	-55.00030517578125	-250.0	249.99237060546875
6.047	2.69439697265625	9.01245849609375	16.78190185546875	-102.86712646484375	-250.0	249.99237060546875
6.061	-1.57352783203125	10.10937744140625	19.61940124511719	-149.0631103515625	-250.0	249.99237060546875
6.073	-3.0560449218750003	7.0653076171875	19.61940124511719	-232.78045654296875	-250.0	249.99237060546875
6.085	-0.10298583984375001	5.65464111328125	19.61940124511719	-250.0	-250.0	249.99237060546875
6.097	1.4082714843750002	5.120551757812501	19.61940124511719	-250.0	-250.0	245.84197998046875
6.11	0.58198974609375	4.9097900390625	19.61940124511719	-250.0	-250.0	214.05792236328125
6.122	0.6849755859375001	5.39597900390625	18.42009521484375	-250.0	-250.0	189.02587890625
6.134	2.4501049804687502	6.10969482421875	15.675402832031251	-250.0	-250.0	194.9920654296875
6.147	5.266647949218751	5.680986328125	13.258828125	-250.0	-250.0	212.09716796875
6.159	7.405400390625	4.9576904296875	12.636123046875001	-250.0	-250.0	230.64422607421875
6.171	8.48555419921875	4.29906005859375	12.463681640625001	-250.0	-250.0	248.443603515625
6.183	8.58614501953125	2.5004003906250003	13.325888671875001	-250.0	-250.0	242.61474609375
6.197	9.649533691406251	-0.37362304687500003	14.829960937500001	-250.0	-230.072021484375	235.37445068359375
6.209	2.2273681640625003	1.16158447265625	15.122153320312501	-250.0	-250.0	194.793701171875
6.221	0.718505859375	1.6310083007812501	10.712922363281251	-250.0	-250.0	145.48492431640625
6.233	0.622705078125	4.550537109375	7.367080078125	-250.0	-250.0	122.9705810546875
6.245	-0.023950195312500002	6.76593017578125	4.581672363281251	-250.0	-217.681884765625	112.06817626953125
6.257	0.9029223632812501	6.77551025390625	1.46335693359375	-250.0	-131.8359375	93.83392333984375
6.269	2.23934326171875	8.6077001953125	-1.7124389648437501	-250.0	-48.75946044921875	81.16912841796875
6.281	4.042792968750001	8.5406396484375	-5.154082031250001	-250.0	30.09796142578125	46.08154296875
6.293	6.4833178710937505	7.5682617187500005	-4.8427294921875	-250.0	57.86895751953125	26.9012451171875
6.305	6.564748535156251	4.967270507812501	-5.513334960937501	-250.0	83.31298828125	-19.21844482421875
6.318	7.2018237304687505	3.3578173828125	-4.9265551757812505	-250.0	50.2166748046875	-71.4569091796875
6.33	10.90931396484375	1.96152099609375	-3.6476147460937502	-250.0	37.68157958984375	-101.40228271484375
6.342	13.2540380859375	1.65974853515625	-5.10857666015625	-250.0	22.51434326171875	-92.75054931640625
6.354	15.194003906250002	0.6035449218750001	-9.433981933593751	-250.0	27.48870849609375	-59.1278076171875
6.366	14.42041259765625	1.20948486328125	-15.390395507812501	-250.0	46.01287841796875	-26.1688232421875
6.379	16.314873046875	-0.9819580078125001	-15.09580810546875	-250.0	78.98712158203125	16.02935791015625
6.391	14.9209716796875	-2.77103759765625	-10.43031005859375	-250.0	73.44818115234375	58.21990966796875
6.404	14.13780029296875	-2.1315673828125	-11.82421142578125	-250.0	58.78448486328125	86.26556396484375
6.416	15.47422119140625	-2.634521484375	-10.74884765625	-239.32647705078125	118.621826171875	133.81195068359375
6.429	14.583273925781251	-2.9650341796875	-10.86380859375	-217.03338623046875	199.79095458984375	196.47979736328125
6.441	11.89127197265625	-3.3051269531250003	-9.1537646484375	-214.77508544921875	193.41278076171875	211.18927001953125
6.454	13.71627685546875	-0.36643798828125	-13.9869140625	-177.8411865234375	174.96490478515625	222.99957275390625
6.466	15.785573730468752	0.76880126953125	-15.6203173828125	-99.90692138671875	213.3331298828125	249.99237060546875
6.478	16.963923339843753	1.580712890625	-13.58215576171875	-27.64892578125	226.00555419921875	249.99237060546875
6.491	17.69200927734375	2.7662475585937503	-12.71994873046875	28.46527099609375	249.99237060546875	249.99237060546875
6.503	11.22545654296875	4.2104443359375	-8.65799560546875	28.54156494140625	233.0780029296875	249.99237060546875
6.515	10.0063916015625	6.34201171875	-11.25419677734375	31.12030029296875	188.78173828125	249.99237060546875
6.528	10.1165625	6.89526123046875	-13.05046142578125	75.5767822265625	201.5838623046875	249.99237060546875
6.54	5.9540185546875	6.53600830078125	-11.76673095703125	114.84527587890625	165.80963134765625	249.99237060546875
6.551	4.27989990234375	5.3456835937500005	-11.26856689453125	174.30877685546875	51.483154296875	248.98529052734375
6.563	5.49656982421875	5.4031640625	-9.230405273437501	242.67578125	-32.26470947265625	188.02642822265625
6.575	4.46431640625	4.81159423828125	-4.27271484375	249.99237060546875	-58.9141845703125	115.59295654296875
6.587	7.024592285156251	2.8309130859375	-2.404599609375	249.99237060546875	-21.47674560546875	74.98931884765625
6.598	9.7956298828125	-2.72792724609375	4.7205834960937505	249.99237060546875	19.43206787109375	92.75054931640625
6.61	5.29538818359375	-8.6987109375	9.649533691406251	246.6278076171875	20.92742919921875	99.75433349609375
6.622	3.822451171875	-10.1021923828125	6.9359765625000005	213.29498291015625	-4.241943359375	75.40130615234375
6.633	7.2281689453125	-7.0293823242187505	1.0154882812500001	210.540771484375	37.139892578125	75.37078857421875
6.645	9.77407470703125	-5.819897460937501	-3.477568359375	244.476318359375	119.95697021484375	105.6976318359375
6.658	11.603869628906251	-5.68817138671875	-5.4989648437500005	249.99237060546875	195.648193359375	169.281005859375
6.67	9.39087158203125	-5.23072265625	-3.1949560546875	249.99237060546875	200.3631591796875	218.87969970703125
6.682	7.0820727539062505	-5.367238769531251	2.51237548828125	249.99237060546875	141.66259765625	242.3248291015625
6.694	6.31566650390625	-7.5251513671875	7.1419482421875005	249.99237060546875	64.44549560546875	249.99237060546875
6.707	2.46447509765625	-9.3836865234375	10.85662353515625	249.99237060546875	17.02117919921875	220.5352783203125
6.718	1.53041748046875	-10.01357666015625	12.664863281250001	249.99237060546875	-5.24139404296875	161.91864013671875
6.73	3.2572265625	-11.7212255859375	13.17021240234375	249.99237060546875	38.055419921875	120.71990966796875
6.743	4.77087890625	-10.95721435546875	12.248129882812501	221.88568115234375	160.3546142578125	118.99566650390625
6.755	4.39007080078125	-9.54415283203125	10.77519287109375	178.45916748046875	249.99237060546875	136.5966796875
6.767	4.95050537109375	-9.34776123046875	8.32269287109375	144.06585693359375	249.99237060546875	150.99334716796875
6.779	5.90851318359375	-8.708291015625	6.164780273437501	128.692626953125	249.99237060546875	158.30230712890625
6.792	6.69886962890625	-7.83889892578125	3.8679565429687504	133.50677490234375	239.87579345703125	172.3175048828125
6.803	8.382568359375	-5.9827587890625	2.93150390625	143.63861083984375	243.23272705078125	187.46185302734375
6.815	9.83155517578125	-6.145620117187501	2.7590625	149.46746826171875	249.99237060546875	222.46551513671875
6.828	8.3298779296875	-5.949228515625	3.22130126953125	154.8004150390625	249.99237060546875	249.99237060546875
6.84	7.156318359375001	-5.55405029296875	3.35302734375	153.54156494140625	249.99237060546875	249.99237060546875
6.851	6.1264599609375	-5.508544921875	2.89078857421875	154.632568359375	222.67913818359375	249.99237060546875
6.863	4.34935546875	-4.84512451171875	2.50758544921875	161.0565185546875	214.0655517578125	249.99237060546875
6.875	5.02235595703125	-3.9996826171875	1.427431640625	174.98779296875	244.94171142578125	236.83929443359375
6.887	6.35398681640625	-2.89557861328125	0.8406518554687501	189.544677734375	249.99237060546875	245.23162841796875
6.898	7.64490234375	-1.80344970703125	0.45026367187500005	200.84381103515625	249.99237060546875	249.99237060546875
6.91	8.9813232421875	-1.4250366210937502	0.06466552734375	204.82635498046875	249.99237060546875	249.99237060546875
6.922	8.07361083984375	-0.47900390625	1.41545654296875	188.0340576171875	249.99237060546875	249.99237060546875
6.933	6.03544921875	0.7855664062500001	2.8596533203125003	165.50445556640625	249.99237060546875	249.99237060546875
6.945	6.9695068359375005	1.97589111328125	2.45489501953125	142.2882080078125	249.99237060546875	249.99237060546875
6.957	6.7683251953125	4.0236328125	1.26217529296875	143.69964599609375	205.77239990234375	249.99237060546875
6.969	3.30273193359375	7.436535644531251	0.258662109375	148.10943603515625	150.87890625	249.99237060546875
6.98	-2.6896069335937502	11.0889404296875	0.77359130859375	156.19659423828125	73.93646240234375	249.99237060546875
6.992	-6.10969482421875	11.213481445312501	1.09452392578125	169.51751708984375	-40.88592529296875	249.99237060546875
7.005	-2.9698242187500004	10.106982421875001	2.14354248046875	185.0433349609375	-123.0621337890625	249.99237060546875
7.016	0.45265869140625004	9.7716796875	3.93980712890625	199.981689453125	-136.63482666015625	249.99237060546875
7.028	0.38559814453125	9.9105908203125	6.1743603515625	200.0732421875	-147.42279052734375	249.99237060546875
7.041	-0.8047265625000001	9.00287841796875	9.493857421875001	172.82867431640625	-178.55072021484375	249.99237060546875
7.053	-1.67890869140625	8.79211669921875	12.516372070312501	120.24688720703125	-228.50799560546875	249.99237060546875
7.065	-2.38304443359375	8.176596679687501	15.32093994140625	44.1741943359375	-250.0	249.99237060546875
7.077	-3.0728100585937503	8.452023925781251	16.65736083984375	-41.8243408203125	-250.0	249.99237060546875
7.091	-3.2907568359375	8.317902832031251	18.470390625	-134.52911376953125	-250.0	249.99237060546875
7.103	-3.61887451171875	8.4927392578125	19.61940124511719	-224.25079345703125	-250.0	226.837158203125
7.116	-4.8235693359375	8.303532714843751	19.61940124511719	-250.0	-250.0	180.38177490234375
7.129	-5.1684521484375	8.40891357421875	19.61940124511719	-250.0	-250.0	142.2271728515625
7.142	-3.7410205078125003	8.10474609375	19.61940124511719	-250.0	-250.0	118.09539794921875
7.154	-2.75187744140625	7.563471679687501	19.61940124511719	-250.0	-250.0	111.90032958984375
7.166	-0.689765625	7.182663574218751	19.61940124511719	-250.0	-220.4742431640625	121.337890625
7.18	0.9220825195312501	7.836503906250001	19.193686523437503	-250.0	-185.9588623046875	145.17974853515625
7.192	2.11480224609375	7.00543212890625	16.801062011718752	-250.0	-141.63970947265625	141.83807373046875
7.204	2.327958984375	5.47740966796875	16.456179199218752	-250.0	-157.92083740234375	140.1824951171875
7.217	2.95784912109375	4.129013671875001	16.501684570312502	-250.0	-146.72088623046875	138.80157470703125
7.229	2.05013671875	4.21283935546875	16.583115234375	-250.0	-119.7662353515625	115.85235595703125
7.241	2.1315673828125	2.0932470703125	15.318544921875	-250.0	-111.22894287109375	113.59405517578125
7.254	2.6800268554687503	1.1639794921875	15.49817138671875	-250.0	-82.82470703125	98.16741943359375
7.265	3.6021093750000004	0.30177246093750004	15.122153320312501	-250.0	-49.09515380859375	82.70263671875
7.276	4.368515625000001	-0.22034179687500002	14.140195312500001	-250.0	-26.3824462890625	68.61114501953125
7.288	6.2510009765625005	-0.9436376953125001	13.08878173828125	-250.0	-14.95361328125	62.29400634765625
7.3	6.974296875	-1.4849121093750002	11.117680664062501	-250.0	0.19073486328125	55.15289306640625
7.312	6.1911254882812505	-1.2789404296875	10.59796142578125	-250.0	24.7039794921875	24.66583251953125
7.324	5.300178222656251	-3.8176611328125003	10.67939208984375	-250.0	5.92803955078125	-12.82501220703125
7.336	4.722978515625	-5.180427246093751	10.25068359375	-250.0	-43.95294189453125	-32.34100341796875
7.349	4.665498046875	-3.42727294921875	9.88424560546875	-250.0	-77.03399658203125	-52.39105224609375
7.361	5.15647705078125	-2.26329345703125	8.669970703125001	-250.0	-93.31512451171875	-68.8629150390625
7.373	6.444997558593751	-1.0753637695312501	7.96343994140625	-250.0	-103.90472412109375	-66.79534912109375
7.386	6.42104736328125	0.42870849609375	6.7563500976562505	-250.0	-102.11944580078125	-40.5426025390625
7.398	5.281018066406251	0.852626953125	5.0534912109375005	-250.0	-97.93853759765625	-24.749755859375
7.409	4.5984375	1.2645703125	2.3806494140625003	-250.0	-46.50115966796875	-9.8114013671875
7.421	3.37458251953125	0.83107177734375	3.38416259765625	-250.0	-31.2042236328125	-3.4637451171875
7.433	2.22976318359375	-0.19399658203125	4.648732910156251	-250.0	-20.71380615234375	-9.36126708984375
7.444	2.01900146484375	0.258662109375	3.3961376953125	-250.0	-73.58551025390625	-19.012451171875
7.456	2.2082080078125	2.7662475585937503	2.682421875	-250.0	-85.4644775390625	-51.849365234375
7.469	1.8753002929687501	4.15056884765625	-1.47772705078125	-250.0	-76.385498046875	-106.69708251953125
7.481	3.2787817382812503	2.74708740234375	-6.092929687500001	-250.0	-47.637939453125	-109.88616943359375
7.493	2.960244140625	2.222578125	-5.8773779296875	-250.0	11.8408203125	-89.324951171875
7.504	3.7841308593750003	0.4454736328125	-5.666616210937501	-250.0	45.41015625	-71.28143310546875
7.517	4.646337890625	-1.68369873046875	-5.6450610351562505	-250.0	38.7725830078125	-56.7169189453125
7.529	6.052214355468751	-2.8692333984375002	-5.307363281250001	-239.41802978515625	32.67669677734375	-41.14532470703125
7.541	7.283254394531251	-3.47038330078125	-4.948110351562501	-211.944580078125	48.614501953125	-21.05712890625
7.554	7.077282714843751	-3.5446289062500003	-4.828359375000001	-201.416015625	62.30926513671875	-9.6282958984375
7.565	7.00064208984375	-2.9099487304687504	-4.61999267578125	-202.43072509765625	69.0765380859375	-9.1094970703125
7.577	8.68673583984375	-2.442919921875	-6.3755419921875	-199.63836669921875	90.8203125	4.73785400390625
7.59	8.44723388671875	-2.0213964843750003	-6.3036914062500005	-193.58062744140625	108.29925537109375	12.33673095703125
7.603	8.8519921875	-1.7675244140625002	-6.8593359375	-184.906005859375	94.87152099609375	8.3160400390625
7.615	9.551337890625	-1.28612548828125	-6.564748535156251	-180.73272705078125	80.99365234375	5.92803955078125
7.627	10.990744628906251	-0.76880126953125	-8.789721679687501	-176.422119140625	74.02801513671875	15.07568359375
7.639	12.351115722656251	-0.28021728515625	-10.600356445312501	-151.4892578125	73.18878173828125	33.3404541015625
7.651	12.717553710937501	-0.011975097656250001	-11.01469482421875	-119.415283203125	76.11846923828125	53.5888671875
7.663	12.298425292968751	-0.124541015625	-10.391989746093751	-98.419189453125	76.66015625	69.60296630859375
7.674	10.2746337890625	-0.22034179687500002	-8.4352587890625	-99.80010986328125	57.88421630859375	63.4002685546875
7.687	9.410031738281251	-0.20597167968750002	-7.31199462890625	-115.94390869140625	41.473388671875	45.67718505859375
7.699	9.2878857421875	-0.22273681640625	-8.32269287109375	-120.47576904296875	46.01287841796875	36.09466552734375
7.71	8.61488525390625	-0.17244140625	-8.1622265625	-115.80657958984375	65.277099609375	29.04510498046875
7.723	8.842412109375001	-0.46223876953125004	-8.669970703125001	-108.4136962890625	67.26837158203125	33.0657958984375
7.735	9.0004833984375	-0.5316943359375	-9.649533691406251	-91.10260009765625	67.535400390625	38.8336181640625
7.746	9.568103027343751	-0.6849755859375001	-10.15727783203125	-70.49560546875	63.3392333984375	48.59161376953125
7.758	9.36931640625	-0.6849755859375001	-10.32732421875	-47.30987548828125	65.5975341796875	67.68035888671875
7.771	8.2915576171875	-0.57240966796875	-10.96200439453125	-25.52032470703125	65.7501220703125	80.10101318359375
7.782	7.529941406250001	-0.5604345703125	-10.1692529296875	-3.1890869140625	65.97137451171875	81.8634033203125
7.794	8.17899169921875	-1.0921289062500001	-9.474697265625	3.0670166015625	74.9664306640625	83.59527587890625
7.805	8.550219726562501	-1.5926879882812501	-9.3453662109375	6.91986083984375	85.82305908203125	84.64813232421875
7.818	9.168134765625	-2.22018310546875	-9.357341308593751	13.916015625	80.0323486328125	86.05194091796875
7.83	7.8125537109375	-3.04406982421875	-6.504873046875001	14.984130859375	-6.0577392578125	83.06121826171875
7.842	8.5981201171875	-2.94826904296875	-9.78844482421875	23.41461181640625	-26.32904052734375	81.97784423828125
7.855	7.429350585937501	-2.34472412109375	-12.537927246093751	35.64453125	52.43682861328125	81.32171630859375
7.866	3.1853759765625003	-1.2645703125	-10.705737304687501	52.2918701171875	128.92913818359375	63.01116943359375
7.877	3.25962158203125	-0.49097900390625004	-12.3630908203125	87.57781982421875	164.31427001953125	54.25262451171875
7.889	5.187612304687501	0.39038818359375	-13.266013183593751	139.892578125	219.0399169921875	64.5599365234375
7.902	6.62701904296875	1.0011181640625	-11.1655810546875	183.013916015625	238.9984130859375	77.63671875
7.913	9.2208251953125	0.52929931640625	-8.58135498046875	198.90594482421875	196.78497314453125	89.935302734375
7.925	12.46128662109375	-0.57719970703125	-6.0881396484375	198.028564453125	183.380126953125	90.46173095703125
7.938	14.20965087890625	-1.005908203125	-4.15056884765625	177.39105224609375	160.68267822265625	89.45465087890625
7.95	17.2872509765625	-3.3458422851562504	-2.7207421875	165.48919677734375	193.35174560546875	96.221923828125
7.962	16.45138916015625	-3.80568603515625	-1.9543359375	166.717529296875	230.3924560546875	114.11285400390625
7.974	15.64666259765625	-3.3769775390625	-2.5722509765625	176.12457275390625	242.62237548828125	137.48931884765625
7.987	14.985637207031251	-1.8920654296875001	-3.7745507812500003	196.533203125	246.91009521484375	155.32684326171875
7.998	15.12454833984375	-0.0718505859375	-4.4499462890625	226.6693115234375	249.99237060546875	176.81884765625
8.01	14.559323730468751	0.49097900390625004	-4.129013671875001	249.99237060546875	249.99237060546875	210.45684814453125
8.023	12.973820800781251	0.67300048828125	-3.42727294921875	249.99237060546875	249.99237060546875	238.99078369140625
8.034	12.003837890625	0.699345703125	-2.3710693359375	249.99237060546875	249.99237060546875	249.99237060546875
8.046	9.4124267578125	0.8813671875000001	-0.79275146484375	249.99237060546875	249.99237060546875	249.99237060546875
8.057	8.205336914062501	0.74964111328125	-0.11735595703125	249.99237060546875	249.99237060546875	249.99237060546875
8.069	8.44962890625	0.15088623046875002	0.050295410156250005	249.99237060546875	202.392578125	249.99237060546875
8.08	9.110654296875001	-0.1676513671875	0.08382568359375	249.99237060546875	163.94805908203125	249.99237060546875
8.091	9.5561279296875	0.05748046875	-0.06945556640625	249.99237060546875	133.38470458984375	249.99237060546875
8.103	9.17531982421875	-0.076640625	-0.55803955078125	246.91009521484375	127.72369384765625	249.99237060546875
8.115	7.95146484375	0.25626708984375	-0.9220825195312501	247.314453125	137.9852294921875	249.99237060546875
8.127	6.924001464843751	0.8214916992187501	-0.948427734375	249.99237060546875	147.0184326171875	245.42999267578125
8.138	6.67970947265625	1.2022998046875	-1.0490185546875002	249.99237060546875	162.7044677734375	249.99237060546875
8.151	6.1743603515625	2.08606201171875	-0.29937744140625	249.99237060546875	174.23248291015625	249.99237060546875
8.162	5.08462646484375	2.9075537109375	0.89334228515625	249.99237060546875	162.37640380859375	249.99237060546875
8.173	3.0823901367187503	3.6619848632812504	2.14833251953125	249.99237060546875	133.33892822265625	249.99237060546875
8.184	2.0309765625000002	3.6547998046875003	2.6369165039062503	249.99237060546875	125.75531005859375	249.99237060546875
8.196	1.02267333984375	3.7889208984375	3.8775366210937503	249.99237060546875	114.23492431640625	249.99237060546875
8.208	-0.17004638671875	4.48587158203125	4.50263671875	249.99237060546875	98.80828857421875	249.99237060546875
8.219	-0.33290771484375004	5.77439208984375	4.1817041015625005	249.99237060546875	71.22802734375	249.99237060546875
8.23	-0.34727783203125	6.7395849609375	3.0273046875	249.99237060546875	47.67608642578125	249.99237060546875
8.242	0.06466552734375	8.61488525390625	2.5914111328125	249.99237060546875	29.21295166015625	249.99237060546875
8.253	-0.32811767578125	9.687854003906251	4.78285400390625	249.99237060546875	20.7366943359375	249.99237060546875
8.264	-1.77949951171875	10.13811767578125	8.14306640625	249.99237060546875	-6.17218017578125	244.56024169921875
8.276	-0.89813232421875	10.37282958984375	10.50695068359375	249.99237060546875	-32.9437255859375	217.84210205078125
8.289	0.24908203125	9.014853515625001	12.46128662109375	249.99237060546875	-62.4237060546875	219.3603515625
8.301	1.2214599609375	8.00176025390625	13.069621582031251	249.99237060546875	-76.75933837890625	240.85235595703125
8.312	2.5267456054687503	8.909472656250001	14.3557470703125	249.99237060546875	-52.001953125	248.3673095703125
8.325	2.7135571289062503	8.93581787109375	15.373630371093752	249.99237060546875	-15.4876708984375	249.99237060546875
8.337	1.0538085937500001	8.70589599609375	16.87770263671875	215.0115966796875	12.2222900390625	249.99237060546875
8.348	0.4742138671875	8.018525390625001	16.844172363281253	167.96112060546875	35.1104736328125	249.99237060546875
8.359	-0.9029223632812501	7.975415039062501	17.40939697265625	126.83868408203125	53.9093017578125	237.61749267578125
8.372	-2.6536816406250003	7.994575195312501	17.37826171875	78.17840576171875	59.99755859375	197.6165771484375
8.384	-1.9255957031250002	7.13476318359375	16.7890869140625	29.64019775390625	54.3365478515625	154.4647216796875
8.395	1.4849121093750002	6.9790869140625	14.528188476562502	-5.462646484375	61.05804443359375	137.64190673828125
8.407	4.1050634765625	6.4426025390625	12.9378955078125	-31.9366455078125	90.3472900390625	152.10723876953125
8.419	4.03081787109375	7.197033691406251	11.896062011718751	-63.04931640625	84.9609375	159.2254638671875
8.431	5.2355126953125	7.15871337890625	10.55964111328125	-95.5963134765625	78.89556884765625	170.7305908203125
8.443	4.74453369140625	7.15871337890625	9.896220703125001	-122.74932861328125	76.57623291015625	181.5338134765625
8.455	3.69551513671875	5.73128173828125	9.71180419921875	-143.50128173828125	65.887451171875	173.46954345703125
8.467	3.2572265625	5.44387939453125	8.33706298828125	-157.46307373046875	32.71484375	146.43096923828125
8.478	1.5376025390625	4.641547851562501	7.42695556640625	-156.7840576171875	-21.96502685546875	88.55438232421875
8.491	1.4992822265625	3.96615234375	5.518125	-147.216796875	-113.9984130859375	13.20648193359375
8.503	1.2765454101562501	3.190166015625	5.546865234375001	-130.92803955078125	-168.182373046875	-63.43841552734375
8.515	-1.561552734375	2.77103759765625	8.59093505859375	-125.48828125	-179.3670654296875	-126.85394287109375
8.527	1.025068359375	1.7076489257812502	11.723620605468751	-165.5120849609375	-174.90386962890625	-136.00921630859375
8.541	1.8872753906250002	-1.69806884765625	13.203742675781251	-196.25091552734375	-115.478515625	-110.3973388671875
8.553	5.08462646484375	-3.6931201171875	12.39901611328125	-194.60296630859375	-81.45904541015625	-9.1705322265625
8.565	4.29906005859375	-3.1662158203125004	12.492421875	-178.84063720703125	-40.58837890625	85.36529541015625
8.578	7.096442871093751	-0.5987548828125	11.431428222656251	-188.690185546875	-34.60693359375	179.86297607421875
8.59	4.7469287109375005	-0.8047265625000001	12.4397314453125	-202.4688720703125	-26.6265869140625	233.84857177734375
8.601	0.18920654296875	-0.25147705078125	13.615686035156251	-224.9908447265625	-40.01617431640625	208.04595947265625
8.613	-1.84656005859375	0.59396484375	14.23360107421875	-250.0	-42.4652099609375	166.5191650390625
8.626	-2.9171337890625	0.08861572265625	15.7544384765625	-250.0	-44.0216064453125	145.01953125
8.638	-4.19367919921875	-0.8095166015625	15.950830078125001	-250.0	-55.5877685546875	136.61956787109375
8.65	-4.136198730468751	-2.91473876953125	16.908837890625	-250.0	-46.45538330078125	134.46807861328125
8.663	-3.12310546875	-3.650009765625	17.62015869140625	-250.0	-32.6690673828125	131.4544677734375
8.675	-3.6452197265625004	-4.1481738281250005	15.900534667968751	-250.0	-22.03369140625	126.953125
8.687	-0.19399658203125	-4.40923095703125	15.050302734375	-250.0	13.397216796875	141.7388916015625
8.699	-1.3460009765625	-3.5709741210937502	14.521003417968751	-250.0	30.3192138671875	143.5699462890625
8.711	-0.04071533203125	-2.9961694335937503	13.503120117187501	-250.0	33.843994140625	138.24462890625
8.723	-2.3471191406250003	-2.11480224609375	11.790681152343751	-250.0	18.65386962890625	116.302490234375
8.735	-1.76991943359375	-1.9088305664062502	10.3033740234375	-250.0	-1.68609619140625	78.43017578125
8.748	-1.33881591796875	-0.8095166015625	7.82452880859375	-250.0	4.87518310546875	69.74029541015625
8.759	-2.1411474609375003	-1.3076806640625	4.8235693359375	-250.0	27.94647216796875	49.72076416015625
8.771	-3.4057177734375004	-3.16142578125	3.73383544921875	-250.0	66.1468505859375	21.06475830078125
8.782	-4.80919921875	-4.375700683593751	2.1986279296875	-250.0	61.86676025390625	-1.4495849609375
8.795	-4.82596435546875	-4.282294921875001	1.02746337890625	-250.0	28.1829833984375	-20.050048828125
8.806	-3.0823901367187503	-3.5613940429687503	1.3316308593750001	-250.0	29.9224853515625	-38.02490234375
8.818	-2.4477099609375	-3.92543701171875	1.36755615234375	-250.0	55.50384521484375	-51.20086669921875
8.83	-1.48251708984375	-5.0463061523437505	1.62142822265625	-250.0	81.5582275390625	-58.18939208984375
8.843	-0.91729248046875	-4.9193701171875	3.7074902343750002	-250.0	114.532470703125	-64.96429443359375
8.855	-1.8321899414062501	-3.73383544921875	2.9722192382812502	-250.0	130.79071044921875	-80.3375244140625
8.867	-3.994892578125	-2.2441333007812503	3.3817675781250003	-250.0	137.59613037109375	-124.298095703125
8.88	-3.822451171875	-2.0836669921875	3.22130126953125	-250.0	132.904052734375	-190.23895263671875
8.893	-2.1124072265625	-1.67890869140625	2.33993408203125	-250.0	146.79718017578125	-244.7052001953125
8.904	0.067060546875	-0.7424560546875001	1.84177001953125	-250.0	184.91363525390625	-250.0
8.916	2.1794677734375	-0.9220825195312501	3.6164794921875	-247.5433349609375	248.29864501953125	-250.0
8.929	5.38160888671875	-1.944755859375	3.5254687500000004	-210.18218994140625	249.99237060546875	-250.0
8.941	5.453459472656251	-1.10410400390625	2.806962890625	-169.96002197265625	249.99237060546875	-250.0
8.953	8.727451171875	0.35685791015625	1.714833984375	-128.68499755859375	249.99237060546875	-250.0
8.966	14.932946777343751	0.09340576171875001	-1.6741186523437501	-66.44439697265625	249.99237060546875	-187.255859375
8.977	19.61940124511719	-3.34105224609375	-6.5431933593750005	29.7393798828125	249.99237060546875	-49.774169921875
8.99	19.61940124511719	-4.71100341796875	-7.8317138671875	121.75750732421875	249.99237060546875	101.07421875
9.003	19.61940124511719	-6.7587451171875	-2.50758544921875	198.028564453125	249.99237060546875	193.695068359375
9.015	13.1390771484375	-11.28293701171875	8.123906250000001	228.15704345703125	249.99237060546875	134.246826171875
9.027	12.07329345703125	-12.875625000000001	11.0889404296875	198.4710693359375	249.99237060546875	118.08013916015625
9.039	19.61940124511719	-9.402846679687501	8.612490234375	168.701171875	249.99237060546875	157.81402587890625
9.052	19.61940124511719	-9.35255126953125	5.8486376953125	140.899658203125	249.99237060546875	212.12005615234375
9.064	18.518291015625	-9.374106445312501	4.6271777343750005	122.9400634765625	249.99237060546875	218.28460693359375
9.076	16.2813427734375	-8.4927392578125	6.1072998046875	114.3341064453125	249.99237060546875	180.17578125
9.09	16.583115234375	-10.8302783203125	6.718029785156251	134.25445556640625	249.99237060546875	205.19256591796875
9.102	19.449953613281252	-14.3365869140625	6.9695068359375005	134.246826171875	249.99237060546875	249.99237060546875
9.114	17.11001953125	-13.900693359375001	5.44387939453125	101.43280029296875	249.99237060546875	249.99237060546875
9.125	13.35702392578125	-11.21587646484375	4.38049072265625	59.50164794921875	249.99237060546875	249.99237060546875
9.138	11.86732177734375	-9.948911132812501	2.4477099609375	24.3988037109375	249.99237060546875	249.99237060546875
9.15	9.1729248046875	-8.047265625	1.0106982421875002	13.25225830078125	183.93707275390625	249.99237060546875
9.16	9.283095703125001	-5.59716064453125	0.028740234375	6.96563720703125	110.05401611328125	249.99237060546875
9.171	7.49162109375	-4.96487548828125	0.28500732421875	7.3089599609375	50.8270263671875	249.99237060546875
9.183	3.52307373046875	-4.32301025390625	1.0106982421875002	22.613525390625	1.6326904296875	249.99237060546875
9.194	-1.47772705078125	-1.3268408203125002	2.960244140625	36.07177734375	-22.247314453125	249.99237060546875
9.205	-4.52419189453125	0.17962646484375	5.70733154296875	48.1719970703125	-50.8575439453125	249.99237060546875
9.218	-4.8738647460937505	-1.350791015625	6.9982470703125	44.48699951171875	-70.80078125	196.441650390625
9.23	-3.3290771484375004	-2.43094482421875	7.1156030273437505	35.43853759765625	-88.592529296875	153.50341796875
9.241	1.0681787109375	-3.0057495117187503	6.1552001953125	37.0635986328125	-97.83935546875	178.0548095703125
9.253	3.4440380859375	-3.2236962890625	4.794829101562501	49.21722412109375	-89.11895751953125	243.00384521484375
9.266	4.8235693359375	-1.7292041015625002	4.3948608398437505	82.74078369140625	-76.446533203125	249.99237060546875
9.277	2.82372802734375	0.28500732421875	3.72904541015625	106.40716552734375	-94.2840576171875	249.99237060546875
9.288	2.8788134765625	1.37953125	5.1133666992187505	114.02130126953125	-92.68951416015625	249.99237060546875
9.3	0.9340576171875	1.4418017578125	7.15392333984375	118.38531494140625	-100.62408447265625	249.99237060546875
9.312	0.08382568359375	1.8537451171875001	8.954978027343751	113.1134033203125	-112.15972900390625	249.99237060546875
9.324	0.948427734375	1.7890795898437502	10.02315673828125	94.68841552734375	-102.325439453125	249.99237060546875
9.335	-0.59635986328125	1.1927197265625	11.35478759765625	75.35552978515625	-66.70379638671875	249.99237060546875
9.347	-3.59971435546875	1.30528564453125	12.73910888671875	53.10821533203125	-47.4090576171875	249.99237060546875
9.359	-5.13252685546875	2.2656884765625	12.578642578125	6.41632080078125	-29.9224853515625	249.99237060546875
9.37	-5.39597900390625	2.4189697265625	12.339140625	-54.74853515625	-30.670166015625	212.27264404296875
9.382	-2.81893798828125	1.83697998046875	8.97892822265625	-72.01385498046875	-44.769287109375	191.131591796875
9.395	-0.4550537109375	4.61041259765625	7.99697021484375	-77.2247314453125	-77.38494873046875	203.68194580078125
9.407	-0.0814306640625	6.52163818359375	7.39342529296875	-81.94732666015625	-97.900390625	216.400146484375
9.42	-2.51237548828125	7.5083862304687505	8.0089453125	-85.09063720703125	-92.47589111328125	197.22747802734375
9.433	-6.14801513671875	7.1156030273437505	9.93214599609375	-88.56201171875	-105.44586181640625	151.78680419921875
9.446	-10.391989746093751	6.3994921875	11.349997558593751	-110.37445068359375	-145.0347900390625	92.1173095703125
9.458	-9.263935546875	5.3887939453125	12.291240234375001	-133.23211669921875	-152.52685546875	55.6640625
9.47	-7.7933935546875	4.646337890625	11.43621826171875	-143.646240234375	-124.22943115234375	35.57586669921875
9.484	-7.6113720703125	4.19367919921875	11.96791259765625	-144.8516845703125	-119.54498291015625	14.27459716796875
9.496	-8.737031250000001	4.27031982421875	12.351115722656251	-168.27392578125	-143.37158203125	-21.23260498046875
9.508	-7.0653076171875	4.61041259765625	12.068503417968751	-206.6192626953125	-179.84771728515625	-49.38507080078125
9.522	-5.46303955078125	4.33738037109375	11.50327880859375	-238.677978515625	-173.7823486328125	-59.844970703125
9.534	-4.18409912109375	3.3003369140625	11.079360351562501	-250.0	-138.63372802734375	-59.3414306640625
9.545	-2.65607666015625	0.3400927734375	8.2149169921875	-228.20281982421875	-26.23748779296875	-43.02978515625
9.558	-3.8344262695312503	-0.71611083984375	9.82676513671875	-160.71319580078125	22.97210693359375	-53.436279296875
9.571	-2.385439453125	-0.87418212890625	9.953701171875	-121.2310791015625	-51.1932373046875	-64.8040771484375
9.582	-0.75443115234375	1.89446044921875	9.1729248046875	-66.45965576171875	-0.96893310546875	-71.38824462890625
9.593	-2.57464599609375	0.34248779296875004	8.24126220703125	7.1868896484375	24.7039794921875	-43.19000244140625
9.605	-2.8404931640625	0.41912841796875	8.99329833984375	26.26800537109375	40.12298583984375	-38.604736328125
9.616	-3.3673974609375	-0.12214599609375	9.2351953125	28.80859375	42.7398681640625	-43.52569580078125
9.627	-3.0608349609375	-1.753154296875	10.346484375000001	44.76165771484375	54.6417236328125	-58.1512451171875
9.639	-2.9506640625	-2.8764184570312503	11.38352783203125	54.19921875	65.49835205078125	-68.3746337890625
9.651	-3.2141162109375	-3.70988525390625	12.030183105468751	52.40631103515625	60.55450439453125	-79.132080078125
9.663	-2.5171655273437503	-4.31343017578125	11.965517578125	40.32135009765625	47.4700927734375	-94.44427490234375
9.675	-1.40108642578125	-4.35175048828125	12.128378906250001	23.88763427734375	36.99493408203125	-102.42462158203125
9.687	-0.047900390625000004	-4.136198730468751	11.63021484375	6.4544677734375	40.1458740234375	-97.90802001953125
9.698	0.1676513671875	-3.93980712890625	11.06738525390625	-8.76617431640625	36.75079345703125	-88.6383056640625
9.71	0.67060546875	-4.00686767578125	9.81	-16.22772216796875	31.22711181640625	-77.27813720703125
9.721	0.65384033203125	-3.54702392578125	9.36692138671875	-19.683837890625	33.1878662109375	-57.342529296875
9.734	-1.1472143554687502	-2.6033862304687503	8.7705615234375	-18.2952880859375	35.72845458984375	-41.06903076171875
9.745	-2.39501953125	-1.8633251953125	8.6220703125	-5.035400390625	29.3121337890625	-39.4744873046875
9.756	-2.4525	-1.5759228515625001	8.078400878906251	2.4261474609375	30.17425537109375	-33.63800048828125
9.768	-2.93150390625	-1.48251708984375	8.15983154296875	11.90948486328125	36.8804931640625	-32.98187255859375
9.78	-3.171005859375	-1.9136206054687501	7.73351806640625	27.59552001953125	53.23028564453125	-39.1845703125
9.792	-2.6201513671875003	-2.25850341796875	7.582631835937501	47.92022705078125	74.34844970703125	-41.74041748046875
9.803	-1.8753002929687501	-2.90036865234375	7.85326904296875	62.3016357421875	87.4786376953125	-38.82598876953125
9.816	-1.6908837890625001	-3.14466064453125	8.2915576171875	67.68035888671875	88.44757080078125	-31.524658203125
9.827	-2.24892333984375	-3.0512548828125	8.662785644531251	61.14959716796875	71.83074951171875	-30.0750732421875
9.839	-2.62733642578125	-2.8021728515625	8.931027832031251	50.47607421875	50.60577392578125	-35.8734130859375
9.85	-1.3867163085937502	-2.69918701171875	8.75619140625	35.21728515625	27.85491943359375	-36.15570068359375
9.863	-0.9196875	-2.57943603515625	8.3490380859375	30.9600830078125	26.0772705078125	-23.13995361328125
9.874	-1.18553466796875	-1.6860937500000002	8.26042236328125	34.454345703125	41.1376953125	-9.7503662109375
9.885	-1.74357421875	-1.37953125	8.796906738281251	39.2303466796875	48.553466796875	-2.37274169921875
9.896	-2.04295166015625	-1.906435546875	9.36692138671875	44.38018798828125	39.9627685546875	4.852294921875
9.908	-1.61184814453125	-2.6896069335937502	10.01357666015625	39.72625732421875	35.2020263671875	9.4146728515625
9.92	-1.85614013671875	-3.13508056640625	10.300979003906251	29.0985107421875	34.09576416015625	16.0369873046875
9.931	-6.4330224609375	-3.3123120117187503	8.7418212890625	105.24749755859375	-7.39288330078125	3.9215087890625
9.944	-3.7817358398437504	-2.2872436523437503	11.18713623046875	63.53759765625	-8.8348388671875	-9.918212890625
9.955	-1.37953125	-2.2465283203125	10.70334228515625	45.72296142578125	36.59820556640625	-11.8408203125
9.967	-6.60785888671875	-1.9519409179687501	12.63372802734375	28.92303466796875	5.28717041015625	-24.29962158203125
9.978	-4.972060546875	-0.7472460937500001	8.35143310546875	14.984130859375	0.83160400390625	-26.84783935546875
9.99	0.72090087890625	-1.05620361328125	8.12630126953125	45.00579833984375	-31.707763671875	-32.15789794921875
10.002	-0.0622705078125	-1.34360595703125	7.30001953125	57.73162841796875	-18.83697509765625	-30.25054931640625
10.014	-0.38559814453125	-1.4418017578125	8.171806640625	82.72552490234375	-9.46044921875	-45.55511474609375
10.025	-0.9604028320312501	-1.41066650390625	8.33466796875	119.32373046875	15.86151123046875	-55.73272705078125
10.038	-0.63947021484375	-1.4130615234375001	9.3166259765625	136.1083984375	29.86907958984375	-53.924560546875
10.05	-3.2141162109375	-2.2106030273437502	10.815908203125	121.83380126953125	29.35791015625	-60.55450439453125
10.062	-2.9746142578125	-1.7962646484375	12.36069580078125	98.724365234375	24.0936279296875	-64.849853515625
10.075	-2.1603076171875	-0.44786865234375	12.044553222656251	68.62640380859375	31.2957763671875	-61.62261962890625
10.086	-4.5601171875	0.7065307617187501	9.4651171875	49.3927001953125	-9.674072265625	-74.08905029296875
10.098	-3.4727783203125	1.1160791015625	9.860295410156251	33.7066650390625	-56.38885498046875	-74.5849609375
10.11	-3.42727294921875	1.53999755859375	9.92256591796875	13.1072998046875	-92.46063232421875	-67.0013427734375
10.123	-2.01181640625	1.09931396484375	9.30944091796875	-2.79998779296875	-125.091552734375	-59.50164794921875
10.135	-1.9854711914062502	0.20597167968750002	7.94427978515625	10.5438232421875	-114.92919921875	-60.18829345703125
10.147	-1.93757080078125	-1.0202783203125	6.777905273437501	31.59332275390625	-123.0010986328125	-64.27001953125
10.16	-0.12214599609375	-1.33402587890625	6.497687988281251	73.24981689453125	-116.34063720703125	-63.37738037109375
10.172	18.223703613281252	3.420087890625	19.61940124511719	-20.5230712890625	-250.0	-101.66168212890625
10.183	1.6813037109375002	0.08861572265625	10.255473632812501	2.7008056640625	-206.634521484375	-51.84173583984375
10.195	3.54702392578125	4.768483886718751	19.61940124511719	-42.97637939453125	-124.85504150390625	-16.34979248046875
10.207	3.1470556640625	-0.60114990234375	9.3118359375	2.6092529296875	15.106201171875	0.396728515625
10.217	-0.39278320312500004	0.1389111328125	9.814790039062501	8.81195068359375	33.721923828125	1.9378662109375
10.227	0.39278320312500004	-0.047900390625000004	9.881850585937501	7.49969482421875	28.11431884765625	-6.46209716796875
10.238	-0.41912841796875	-0.27542724609375	9.656718750000001	0.2899169921875	19.23370361328125	-4.26483154296875
10.25	0.7256909179687501	-0.41433837890625	9.85550537109375	-1.48773193359375	15.43426513671875	13.67950439453125
10.26	-0.26345214843750003	-0.296982421875	9.44595703125	-1.6326904296875	4.09698486328125	26.458740234375
10.272	-1.99984130859375	-0.0814306640625	9.45793212890625	-1.3427734375	-17.15850830078125	17.2882080078125
10.283	-2.462080078125	0.162861328125	9.6040283203125	0.20599365234375	-24.90997314453125	-2.70843505859375
10.293	-0.04071533203125	0.1484912109375	8.52387451171875	2.72369384765625	7.88116455078125	-5.615234375
10.303	-1.40587646484375	0.03592529296875	9.410031738281251	0.02288818359375	-7.05718994140625	-6.53076171875
10.314	-0.43828857421875	-0.1197509765625	9.75251953125	1.373291015625	2.75421142578125	-11.95526123046875
10.326	0.13412109375	-0.1772314453125	9.93214599609375	-0.1220703125	-2.12860107421875	-8.43048095703125
10.335	0.22273681640625	-0.22273681640625	9.915380859375	0.3204345703125	2.08282470703125	0.1678466796875
10.344	0.045505371093750004	-0.11017089843750001	9.956096191406251	-0.17547607421875	0.1373291015625	0.396728515625
10.354	0.3065625	-0.2682421875	9.79802490234375	-0.42724609375	-0.08392333984375	6.24847412109375
10.364	0.19160156250000002	-0.19878662109375	9.78365478515625	-0.5950927734375	0.38909912109375	13.17596435546875
10.375	0.050295410156250005	-0.009580078125	9.7716796875	-0.75531005859375	-0.9002685546875	13.02337646484375
10.384	0.18681152343750002	-0.02155517578125	9.819580078125	0.0457763671875	3.07464599609375	12.298583984375
10.395	0.6634204101562501	-0.05987548828125	9.9010107421875	-0.335693359375	2.7618408203125	12.73345947265625
10.405	-0.17962646484375	-0.023950195312500002	9.560917968750001	-0.75531005859375	-1.85394287109375	11.28387451171875
10.417	-0.6682104492187501	-0.10298583984375001	9.915380859375	-0.4425048828125	2.79998779296875	11.90948486328125
10.427	0.64905029296875	-0.03592529296875	10.4470751953125	-0.43487548828125	0.77056884765625	13.00811767578125
10.437	-0.36643798828125	-0.047900390625000004	9.8914306640625	0.87738037109375	5.07354736328125	17.78411865234375
10.447	0.87897216796875	0.12693603515625002	11.52243896484375	-0.732421875	3.90625	20.37811279296875
10.459	-1.29570556640625	-0.19878662109375	9.06035888671875	-1.3885498046875	3.35693359375	27.74810791015625
10.471	-1.2765454101562501	0.69216064453125	14.013259277343751	-6.90460205078125	-14.8773193359375	18.62335205078125
10.482	-0.622705078125	-0.05748046875	9.0771240234375	-1.556396484375	-2.1514892578125	17.78411865234375
10.492	0.13172607421875002	0.14130615234375002	10.5045556640625	-2.31170654296875	-2.31170654296875	16.12091064453125
10.503	-0.6035449218750001	0.02155517578125	9.0388037109375	0.38909912109375	5.22613525390625	17.059326171875
10.513	0.46702880859375	-0.1484912109375	9.77886474609375	-1.06048583984375	1.5869140625	14.38140869140625
10.523	0.24908203125	-0.2347119140625	9.647138671875	0.49591064453125	2.3345947265625	17.84515380859375
10.533	0.15088623046875002	-0.09101074218750001	9.85550537109375	-0.67901611328125	1.41143798828125	17.7154541015625
10.545	0.5245092773437501	-0.07424560546875	9.9105908203125	-1.76239013671875	-3.35693359375	16.082763671875
10.555	0.44786865234375	-0.0335302734375	9.49625244140625	-0.29754638671875	4.1351318359375	22.77374267578125
10.565	1.1831396484375	-0.28261230468750004	9.170529785156251	-0.52642822265625	2.044677734375	22.8424072265625
10.577	-0.6083349609375001	-0.24908203125	8.06882080078125	-1.28936767578125	-9.0789794921875	26.81732177734375
10.588	0.3592529296875	-0.20118164062500002	9.513017578125	-1.02996826171875	2.00653076171875	29.48760986328125
10.599	-1.5950830078125	-0.30177246093750004	10.145302734375	1.82342529296875	6.8206787109375	34.55352783203125
10.61	0.7472460937500001	-0.10777587890625001	8.5597998046875	-1.97601318359375	-3.47900390625	34.87396240234375
10.62	-1.04183349609375	-0.1389111328125	10.3512744140625	-0.67901611328125	1.3885498046875	35.2020263671875
10.633	-6.025869140625001	-0.61552001953125	8.976533203125001	-0.20599365234375	-7.5225830078125	-18.91326904296875
10.643	-1.0538085937500001	-0.18441650390625	8.9717431640625	0.2288818359375	0.03814697265625	-13.90838623046875
10.654	-1.5567626953125	0.48139892578125004	9.522597656250001	0.19073486328125	-4.18853759765625	-4.1351318359375
10.664	-0.4454736328125	0.43828857421875	9.992021484375	-0.152587890625	0.93841552734375	-6.2713623046875
10.675	-0.27063720703125	-0.09340576171875001	9.7668896484375	-0.12969970703125	-0.11444091796875	1.15203857421875
10.684	0.15088623046875002	-0.15328125	9.704619140625	-0.030517578125	0.67901611328125	4.28009033203125
10.694	0.30895751953125	-0.22752685546875	9.83155517578125	-0.5340576171875	-0.396728515625	9.918212890625
10.704	0.19160156250000002	-0.18681152343750002	9.807604980468751	-0.46539306640625	0.518798828125	15.655517578125
10.716	-0.229921875	-0.20118164062500002	9.93214599609375	-0.57220458984375	2.86865234375	17.23480224609375
10.726	-0.39038818359375	-0.009580078125	9.81	-0.54931640625	1.556396484375	17.5323486328125
10.736	-0.61072998046875	0.10538085937500001	9.74533447265625	-0.75531005859375	-0.08392333984375	13.5345458984375
10.746	-0.35685791015625	-0.00239501953125	9.69743408203125	-0.213623046875	-0.3814697265625	8.21685791015625
10.757	-0.25626708984375	-0.02155517578125	9.742939453125	-0.41961669921875	0.1220703125	7.8277587890625
10.767	-0.35685791015625	0.02155517578125	9.687854003906251	-0.12969970703125	-0.67138671875	3.997802734375
10.776	-0.01676513671875	-0.011975097656250001	9.695039062500001	-0.22125244140625	0.18310546875	1.09100341796875
10.786	-0.22034179687500002	-0.086220703125	9.9680712890625	0.0152587890625	0.67138671875	0.8544921875
10.796	-0.02155517578125	-0.124541015625	10.0255517578125	-0.0152587890625	0.89263916015625	1.97601318359375
10.807	-0.26345214843750003	-0.124541015625	9.66869384765625	-0.18310546875	-1.9378662109375	4.38690185546875
10.817	-0.49097900390625004	-0.028740234375	9.860295410156251	-0.46539306640625	-1.99127197265625	7.7362060546875
10.827	-0.35206787109375004	-0.13412109375	9.7381494140625	-0.35858154296875	0.90789794921875	9.8724365234375
10.839	-0.34727783203125	-0.12214599609375	9.702224121093751	-0.54931640625	1.10626220703125	11.6729736328125
10.849	-0.488583984375	-0.026345214843750003	9.73575439453125	-0.45013427734375	-0.75531005859375	10.3759765625
10.86	-0.58198974609375	-0.0383203125	9.635163574218751	-0.823974609375	-1.190185546875	8.819580078125
10.87	-0.46702880859375	-0.067060546875	9.45314208984375	-0.335693359375	0.40435791015625	8.4686279296875
10.881	-0.22273681640625	-0.028740234375	10.06626708984375	-0.6256103515625	1.617431640625	4.8065185546875
10.89	-0.3496728515625	-0.0718505859375	9.793234863281251	-0.06866455078125	0.06866455078125	4.4097900390625
10.901	-0.3209326171875	-0.09340576171875001	9.74533447265625	-0.457763671875	-0.80108642578125	3.62396240234375
10.91	0.086220703125	-0.0335302734375	9.673483886718751	-0.18310546875	-1.50299072265625	5.3253173828125
10.921	-0.09580078125000001	-0.03592529296875	10.260263671875	-0.83160400390625	2.73895263671875	7.049560546875
10.932	-0.43349853515625003	-0.11256591796875001	9.7716796875	-0.11444091796875	2.44140625	8.70513916015625
10.942	-0.57240966796875	-0.045505371093750004	9.695039062500001	-0.31280517578125	-0.5035400390625	8.2855224609375
10.952	-0.19878662109375	-0.05987548828125	9.992021484375	-0.26702880859375	0.43487548828125	8.33892822265625
10.962	-0.1389111328125	-0.00239501953125	9.814790039062501	-0.31280517578125	-0.1983642578125	8.78143310546875
10.974	-0.277822265625	-0.09819580078125001	9.59205322265625	-0.51116943359375	-2.044677734375	7.598876953125
10.984	-0.1293310546875	-0.09101074218750001	9.4986474609375	0.32806396484375	2.2735595703125	8.09478759765625
10.994	-0.10538085937500001	-0.067060546875	9.93214599609375	0.091552734375	1.220703125	8.27789306640625
11.004	-0.37601806640625	0.09101074218750001	9.6902490234375	-0.42724609375	0.98419189453125	6.34765625
11.015	-0.2347119140625	-0.05748046875	9.9297509765625	-1.03759765625	1.22833251953125	6.82830810546875
11.025	-0.42870849609375	-0.047900390625000004	9.72617431640625	-0.30517578125	-0.60272216796875	6.5155029296875
11.035	-0.40236328125000004	-0.06945556640625	9.61121337890625	0.19073486328125	0.4425048828125	7.42340087890625
11.045	-0.009580078125	-0.08382568359375	10.05908203125	-0.1678466796875	1.56402587890625	8.7738037109375
11.056	-0.4167333984375	0.009580078125	9.656718750000001	-0.762939453125	-2.8228759765625	7.17926025390625
11.066	-0.21076171875000002	-0.04071533203125	9.80281494140625	-0.45013427734375	0.77056884765625	7.6446533203125
11.076	-0.3879931640625	-0.00718505859375	9.6615087890625	-0.22125244140625	-0.70953369140625	7.5531005859375
11.086	-0.19399658203125	0.00239501953125	9.776469726562501	-0.579833984375	-1.2054443359375	6.09588623046875
11.097	-0.25626708984375	-0.13412109375	9.73575439453125	0.17547607421875	-0.30517578125	6.6680908203125
11.107	-0.4358935546875	-0.06466552734375	9.69743408203125	0.30517578125	-0.701904296875	7.92694091796875
11.116	-0.5676196289062501	-0.0047900390625	9.769284667968751	-0.1373291015625	1.18255615234375	7.3394775390625
11.126	-0.3209326171875	-0.09340576171875001	9.89382568359375	-0.34332275390625	0.05340576171875	8.331298828125
11.137	-0.48139892578125004	-0.00718505859375	9.86508544921875	-0.40435791015625	1.52587890625	8.56781005859375
11.147	-0.3879931640625	-0.011975097656250001	9.8052099609375	-0.34332275390625	-0.61798095703125	7.110595703125
11.158	-0.5987548828125	-0.0814306640625	9.709409179687501	-0.19073486328125	-0.78582763671875	5.9051513671875
11.168	-0.28261230468750004	-0.050295410156250005	9.72617431640625	-0.25177001953125	-0.40435791015625	5.88226318359375
11.177	-0.055085449218750006	0.026345214843750003	9.96567626953125	-0.4730224609375	-0.46539306640625	4.29534912109375
11.188	-0.5700146484375	-0.00718505859375	9.73575439453125	-0.3814697265625	1.27410888671875	2.46429443359375
11.198	-0.08861572265625	-0.1389111328125	9.814790039062501	-0.34332275390625	0.14495849609375	1.46484375
11.208	-0.31853759765625	-0.16525634765625	9.75012451171875	-0.5035400390625	-2.1514892578125	2.98309326171875
11.218	-0.11735595703125	-0.0143701171875	9.740544433593751	-0.0152587890625	-0.64849853515625	4.8828125
11.229	0.09340576171875001	-0.07424560546875	9.7668896484375	0.12969970703125	2.8533935546875	6.0882568359375
11.238	-0.296982421875	-0.05748046875	9.90819580078125	-0.06866455078125	0.1983642578125	6.61468505859375
11.249	-0.17962646484375	-0.1149609375	9.723779296875	-0.5950927734375	-0.701904296875	7.95745849609375
11.259	-0.33290771484375004	-0.10298583984375001	9.81239501953125	-0.3662109375	-0.17547607421875	10.43701171875
11.271	-0.38559814453125	-0.13651611328125002	9.73575439453125	-0.5340576171875	-0.9002685546875	12.0086669921875
11.281	-0.5987548828125	0.028740234375	9.7381494140625	-0.74005126953125	0.3814697265625	11.8865966796875
11.291	-0.85023193359375	0.06466552734375	9.7189892578125	-0.49591064453125	-0.49591064453125	9.1705322265625
11.301	-0.6442602539062501	0.067060546875	9.75012451171875	-0.5950927734375	-0.3509521484375	5.126953125
11.312	-0.641865234375	0.06466552734375	9.733359375000001	-0.152587890625	-0.23651123046875	1.3885498046875
11.322	-0.36404296875000003	-0.045505371093750004	9.814790039062501	-0.0152587890625	-0.06866455078125	0.18310546875
11.331	-0.354462890625	-0.10777587890625001	9.79083984375	-0.030517578125	-0.030517578125	0.12969970703125
11.34	-0.3448828125	-0.09101074218750001	9.7668896484375	-0.05340576171875	-0.091552734375	0.213623046875
11.351	-0.29937744140625	-0.050295410156250005	9.807604980468751	-0.1068115234375	-0.1068115234375	-0.1220703125
11.361	-0.24908203125	-0.0143701171875	9.70701416015625	0.00762939453125	0.152587890625	-0.0762939453125
11.37	-0.3065625	-0.02155517578125	9.75970458984375	0.1220703125	0.091552734375	0.09918212890625
11.379	-0.277822265625	-0.03113525390625	9.8914306640625	-0.030517578125	-0.14495849609375	-0.11444091796875
11.389	-0.3305126953125	-0.01676513671875	9.742939453125	-0.02288818359375	0.0457763671875	0.0457763671875
11.398	-0.30416748046875003	-0.10777587890625001	9.881850585937501	-0.152587890625	0.02288818359375	0.09918212890625
11.408	-0.38320312500000003	-0.11256591796875001	9.7381494140625	0.03814697265625	-0.213623046875	-0.23651123046875
11.418	-0.335302734375	-0.10059082031250001	9.67587890625	-0.06866455078125	-0.2288818359375	-0.05340576171875
11.427	-0.25147705078125	0.023950195312500002	9.762099609375001	0.0	-0.2593994140625	-0.091552734375
11.437	-0.34727783203125	-0.045505371093750004	9.956096191406251	-0.06866455078125	-0.45013427734375	-0.0152587890625
11.447	-0.21315673828125	-0.01676513671875	9.776469726562501	0.0152587890625	-0.12969970703125	-0.1068115234375
11.456	-0.22513183593750002	-0.01676513671875	9.6998291015625	0.05340576171875	-0.1373291015625	-0.06103515625
11.465	-0.32332763671875003	-0.0431103515625	9.7573095703125	-0.0457763671875	-0.244140625	0.12969970703125
11.474	-0.258662109375	-0.047900390625000004	9.8435302734375	0.1678466796875	0.08392333984375	0.030517578125
11.484	-0.26584716796875	-0.0335302734375	9.7381494140625	0.12969970703125	0.11444091796875	-0.08392333984375
11.494	-0.27063720703125	-0.023950195312500002	9.75012451171875	-0.17547607421875	0.05340576171875	0.00762939453125
11.503	-0.229921875	-0.12693603515625002	9.90340576171875	-0.12969970703125	0.06866455078125	-0.08392333984375
11.513	-0.29937744140625	-0.0622705078125	9.608818359375	-0.22125244140625	-0.32806396484375	-0.00762939453125
11.523	-0.19639160156250002	-0.15567626953125	9.67587890625	-0.091552734375	0.0	0.11444091796875
11.532	-0.3400927734375	0.0047900390625	9.81239501953125	0.030517578125	-0.1068115234375	-0.1068115234375
11.541	-0.20118164062500002	-0.009580078125	9.77886474609375	0.19073486328125	0.02288818359375	0.1220703125
11.55	-0.24908203125	0.028740234375	9.71419921875	-0.08392333984375	0.0152587890625	-0.12969970703125
11.56	-0.16046630859375	-0.07903564453125	9.666298828125	-0.14495849609375	0.2288818359375	-0.1068115234375
11.571	-0.27542724609375	-0.15567626953125	9.702224121093751	-0.16021728515625	0.28228759765625	0.09918212890625
11.58	-0.3448828125	-0.11735595703125	9.7860498046875	-0.0457763671875	-0.00762939453125	-0.030517578125
11.589	-0.3400927734375	-0.01916015625	9.754914550781251	0.1068115234375	0.00762939453125	-0.00762939453125
11.598	-0.316142578125	0.0335302734375	9.821975097656251	-0.1678466796875	-0.05340576171875	-0.030517578125
11.609	-0.3209326171875	-0.09340576171875001	9.747729492187501	-0.06103515625	0.23651123046875	-0.1678466796875
11.619	-0.39996826171875	-0.067060546875	9.9010107421875	-0.1983642578125	-0.1373291015625	-0.19073486328125
11.629	-0.39038818359375	-0.05748046875	9.79083984375	-0.1373291015625	-0.1068115234375	-0.00762939453125
11.638	-0.24908203125	-0.023950195312500002	9.860295410156251	-0.11444091796875	-0.0152587890625	-0.030517578125
11.649	-0.3975732421875	-0.10777587890625001	9.776469726562501	-0.0762939453125	-0.091552734375	-0.03814697265625
11.658	-0.18920654296875	-0.24189697265625001	9.6902490234375	-0.1983642578125	0.30517578125	-0.00762939453125
11.668	-0.46702880859375	-0.1149609375	9.793234863281251	0.06866455078125	-1.04522705078125	0.25177001953125
11.678	-0.38559814453125	0.12693603515625002	9.9297509765625	0.09918212890625	-0.518798828125	0.14495849609375
11.687	-0.24908203125	0.08861572265625	9.877060546875	-0.31280517578125	0.3509521484375	0.06866455078125
11.697	-0.19639160156250002	-0.1389111328125	9.83155517578125	-0.0152587890625	0.244140625	0.00762939453125
11.706	-0.22752685546875	-0.01676513671875	9.838740234375	-0.0152587890625	0.06103515625	-0.00762939453125
11.716	-0.27063720703125	-0.06466552734375	9.742939453125	-0.1678466796875	-0.09918212890625	-0.152587890625
11.725	-0.37362304687500003	-0.03113525390625	9.79802490234375	-0.08392333984375	-0.2593994140625	0.0
11.736	-0.32572265625	-0.026345214843750003	9.7573095703125	-0.335693359375	-0.25177001953125	-0.19073486328125
11.746	-0.30177246093750004	-0.03592529296875	9.860295410156251	-0.14495849609375	-0.274658203125	0.09918212890625
11.755	-0.22273681640625	-0.086220703125	9.702224121093751	0.00762939453125	0.1678466796875	-0.03814697265625
11.764	-0.25626708984375	-0.08382568359375	9.762099609375001	0.0457763671875	-0.05340576171875	-0.11444091796875
11.774	-0.21315673828125	-0.047900390625000004	9.9010107421875	-0.14495849609375	0.25177001953125	0.0152587890625
11.784	-0.26584716796875	-0.0622705078125	9.7716796875	-0.17547607421875	-0.06866455078125	0.1373291015625
11.794	-0.24668701171875002	-0.0335302734375	9.81	-0.08392333984375	0.08392333984375	-0.08392333984375
11.803	-0.21076171875000002	-0.00718505859375	9.75970458984375	-0.091552734375	0.030517578125	0.1068115234375
11.813	-0.25147705078125	-0.1197509765625	9.83155517578125	-0.0152587890625	-0.1068115234375	-0.0152587890625
11.823	-0.296982421875	-0.026345214843750003	9.800419921875001	-0.11444091796875	-0.091552734375	0.00762939453125
11.832	-0.3209326171875	-0.07903564453125	9.781259765625	0.0762939453125	0.1068115234375	-0.0457763671875
11.842	-0.28500732421875	-0.028740234375	9.79802490234375	-0.03814697265625	-0.0457763671875	0.06866455078125
11.851	-0.24189697265625001	-0.052690429687500005	9.814790039062501	-0.03814697265625	-0.244140625	-0.06866455078125
11.86	-0.32332763671875003	-0.05987548828125	9.84113525390625	-0.05340576171875	0.11444091796875	-0.1678466796875
11.871	-0.2682421875	-0.047900390625000004	9.73096435546875	-0.08392333984375	0.1983642578125	0.06103515625
11.88	-0.22752685546875	-0.05987548828125	9.8052099609375	0.08392333984375	0.06866455078125	-0.00762939453125
11.889	-0.22273681640625	-0.03592529296875	9.82676513671875	-0.03814697265625	-0.16021728515625	0.0152587890625
11.898	-0.28500732421875	-0.047900390625000004	9.829160156250001	-0.32806396484375	-0.03814697265625	-0.0762939453125
11.909	-0.35206787109375004	-0.05987548828125	9.7860498046875	0.19073486328125	-0.0152587890625	0.20599365234375
11.918	-0.354462890625	-0.03592529296875	9.7716796875	0.0457763671875	0.0152587890625	-0.091552734375
11.927	-0.335302734375	-0.047900390625000004	9.793234863281251	-0.03814697265625	0.06103515625	0.06866455078125
11.936	-0.23231689453125	-0.00718505859375	9.77886474609375	-0.06866455078125	0.14495849609375	0.1678466796875
